Colour_1,Colour_2,Ecc,trials.thisRepN,trials.thisTrialN,trials.thisN,trials.thisIndex,Circle_1.started,Circle_1.stopped,centre_cross4.started,centre_cross4.stopped,response1disk.started,response1disk.stopped,response2disk.started,response2disk.stopped,response3disk.started,response3disk.stopped,response4disk.started,response4disk.stopped,response5disk.started,response5disk.stopped,response6disk.started,response6disk.stopped,response7disk.started,response7disk.stopped,response8disk.started,response8disk.stopped,mouse.x,mouse.y,mouse.leftButton,mouse.midButton,mouse.rightButton,mouse.clicked_name,mouse.started,mouse.stopped,Circle_2.started,Circle_2.stopped,text_23.started,text_23.stopped,response1disk_3.started,response1disk_3.stopped,response2disk_3.started,response2disk_3.stopped,response3disk_3.started,response3disk_3.stopped,response4disk_3.started,response4disk_3.stopped,response5disk_3.started,response5disk_3.stopped,response6disk_3.started,response6disk_3.stopped,response7disk_3.started,response7disk_3.stopped,response8disk_3.started,response8disk_3.stopped,mouse_3.x,mouse_3.y,mouse_3.leftButton,mouse_3.midButton,mouse_3.rightButton,mouse_3.clicked_name,mouse_3.started,mouse_3.stopped,text_26.started,text_26.stopped,rectangle_2.started,rectangle_2.stopped,response1disk_2.started,response1disk_2.stopped,response2disk_2.started,response2disk_2.stopped,response3disk_2.started,response3disk_2.stopped,response4disk_2.started,response4disk_2.stopped,response5disk_2.started,response5disk_2.stopped,response6disk_2.started,response6disk_2.stopped,response7disk_2.started,response7disk_2.stopped,response8disk_2.started,response8disk_2.stopped,mouse_2.x,mouse_2.y,mouse_2.leftButton,mouse_2.midButton,mouse_2.rightButton,mouse_2.clicked_name,mouse_2.started,mouse_2.stopped,rectangle.started,rectangle.stopped,text_25.started,text_25.stopped,text_24.started,text_24.stopped,participant,session,date,expName,psychopyVersion,frameRate,
6,6,PF,0,0,0,0,65.65959604701493,65.92472792201443,65.65959604701493,None,66.15722394402837,None,66.15722394402837,None,66.15722394402837,None,66.15722394402837,None,66.15722394402837,None,66.15722394402837,None,66.15722394402837,None,66.15722394402837,None,0.06125,-0.1,1,0,0,response3disk,0.015392010798677802,None,66.15722394402837,None,66.15722394402837,None,66.69112357763805,None,66.69112357763805,None,66.69112357763805,None,66.69112357763805,None,66.69112357763805,None,66.69112357763805,None,66.69112357763805,None,66.69112357763805,None,0.06125,-0.1,1,0,0,response3disk,0.012248632672708482,None,66.69112357763805,None,66.69112357763805,None,66.72536557400599,None,66.72536557400599,None,66.72536557400599,None,66.72536557400599,None,66.72536557400599,None,66.72536557400599,None,66.72536557400599,None,66.72536557400599,None,0.01875,-0.005,1,0,0,rectangle,0.002955691423267126,None,66.72536557400599,None,66.72536557400599,None,66.72536557400599,None,,001,2020_Oct_12_1310,Simcolourproject_2stim_asymm_v1,2020.1.2,60.18770970137542,
1,3,PF,0,1,1,1,67.15857681201305,67.40921178698773,67.15857681201305,None,67.66140017501311,None,67.66140017501311,None,67.66140017501311,None,67.66140017501311,None,67.66140017501311,None,67.66140017501311,None,67.66140017501311,None,67.66140017501311,None,-0.03375,-0.09125,1,0,0,response5disk,0.01574819377856329,None,67.66140017501311,None,67.66140017501311,None,67.9419199277996,None,67.9419199277996,None,67.9419199277996,None,67.9419199277996,None,67.9419199277996,None,67.9419199277996,None,67.9419199277996,None,67.9419199277996,None,-0.03375,-0.09125,1,0,0,response5disk,0.00392272777389735,None,67.9419199277996,None,67.9419199277996,None,67.97533568000654,None,67.97533568000654,None,67.97533568000654,None,67.97533568000654,None,67.97533568000654,None,67.97533568000654,None,67.97533568000654,None,67.97533568000654,None,0.015,-0.0025,1,0,0,rectangle,0.009491328615695238,None,67.97533568000654,None,67.97533568000654,None,67.97533568000654,None,,001,2020_Oct_12_1310,Simcolourproject_2stim_asymm_v1,2020.1.2,60.18770970137542,
1,2,FF,0,2,2,2,68.26306071999716,68.52571693103528,68.26306071999716,None,68.7757700610091,None,68.7757700610091,None,68.7757700610091,None,68.7757700610091,None,68.7757700610091,None,68.7757700610091,None,68.7757700610091,None,68.7757700610091,None,0.0625,-0.09125,1,0,0,response3disk,0.015508238750044256,None,68.7757700610091,None,68.7757700610091,None,69.00973889781162,None,69.00973889781162,None,69.00973889781162,None,69.00973889781162,None,69.00973889781162,None,69.00973889781162,None,69.00973889781162,None,69.00973889781162,None,0.0625,-0.09125,1,0,0,response3disk,0.002970981819089502,None,69.00973889781162,None,69.00973889781162,None,69.0422139739967,None,69.0422139739967,None,69.0422139739967,None,69.0422139739967,None,69.0422139739967,None,69.0422139739967,None,69.0422139739967,None,69.0422139739967,None,0.0075,0.02125,1,0,0,rectangle,0.009080770600121468,None,69.0422139739967,None,69.0422139739967,None,69.0422139739967,None,,001,2020_Oct_12_1310,Simcolourproject_2stim_asymm_v1,2020.1.2,60.18770970137542,
3,8,PF,0,3,3,3,69.47659361100523,69.72540035704151,69.47659361100523,None,69.97855771903414,None,69.97855771903414,None,69.97855771903414,None,69.97855771903414,None,69.97855771903414,None,69.97855771903414,None,69.97855771903414,None,69.97855771903414,None,0.1,-0.03875,1,0,0,response3disk,0.015614243864547461,None,69.97855771903414,None,69.97855771903414,None,70.2595080718398,None,70.2595080718398,None,70.2595080718398,None,70.2595080718398,None,70.2595080718398,None,70.2595080718398,None,70.2595080718398,None,70.2595080718398,None,0.1,-0.03875,1,0,0,response3disk,0.005267807806376368,None,70.2595080718398,None,70.2595080718398,None,70.2784615290002,None,70.2784615290002,None,70.2784615290002,None,70.2784615290002,None,70.2784615290002,None,70.2784615290002,None,70.2784615290002,None,70.2784615290002,None,0.00875,0.00375,1,0,0,rectangle,0.01327704160939902,None,70.2784615290002,None,70.2784615290002,None,70.2784615290002,None,,001,2020_Oct_12_1310,Simcolourproject_2stim_asymm_v1,2020.1.2,60.18770970137542,
3,3,PF,0,4,4,4,70.74325899203541,70.99338133999845,70.74325899203541,None,71.24417114799144,None,71.24417114799144,None,71.24417114799144,None,71.24417114799144,None,71.24417114799144,None,71.24417114799144,None,71.24417114799144,None,71.24417114799144,None,0.0375,-0.07875,1,0,0,response3disk,0.01589790277648717,None,71.24417114799144,None,71.24417114799144,None,71.47791672680759,None,71.47791672680759,None,71.47791672680759,None,71.47791672680759,None,71.47791672680759,None,71.47791672680759,None,71.47791672680759,None,71.47791672680759,None,0.0375,-0.07875,1,0,0,response3disk,0.008691763796377927,None,71.47791672680759,None,71.47791672680759,None,71.4959914770443,None,71.4959914770443,None,71.4959914770443,None,71.4959914770443,None,71.4959914770443,None,71.4959914770443,None,71.4959914770443,None,71.4959914770443,None,0.00625,-0.005,1,0,0,rectangle,0.014271054649725556,None,71.4959914770443,None,71.4959914770443,None,71.4959914770443,None,,001,2020_Oct_12_1310,Simcolourproject_2stim_asymm_v1,2020.1.2,60.18770970137542,
6,1,FF,0,5,5,5,71.94623441499425,72.21076180099044,71.94623441499425,None,72.4619084810256,None,72.4619084810256,None,72.4619084810256,None,72.4619084810256,None,72.4619084810256,None,72.4619084810256,None,72.4619084810256,None,72.4619084810256,None,-0.04125,-0.10375,1,0,0,response5disk,0.015712759748566896,None,72.4619084810256,None,72.4619084810256,None,72.76053671279223,None,72.76053671279223,None,72.76053671279223,None,72.76053671279223,None,72.76053671279223,None,72.76053671279223,None,72.76053671279223,None,72.76053671279223,None,-0.04125,-0.10375,1,0,0,response5disk,0.007913115725386888,None,72.76053671279223,None,72.76053671279223,None,72.77842255099677,None,72.77842255099677,None,72.77842255099677,None,72.77842255099677,None,72.77842255099677,None,72.77842255099677,None,72.77842255099677,None,72.77842255099677,None,0.01,-0.00875,1,0,0,rectangle,0.014834960573352873,None,72.77842255099677,None,72.77842255099677,None,72.77842255099677,None,,001,2020_Oct_12_1310,Simcolourproject_2stim_asymm_v1,2020.1.2,60.18770970137542,
9,8,FF,0,6,6,6,73.23128013103269,73.4951193210436,73.23128013103269,None,73.74570509704063,None,73.74570509704063,None,73.74570509704063,None,73.74570509704063,None,73.74570509704063,None,73.74570509704063,None,73.74570509704063,None,73.74570509704063,None,0.05125,-0.14625,1,0,0,response3disk,0.015946114843245596,None,73.74570509704063,None,73.74570509704063,None,74.01175362083595,None,74.01175362083595,None,74.01175362083595,None,74.01175362083595,None,74.01175362083595,None,74.01175362083595,None,74.01175362083595,None,74.01175362083595,None,0.05125,-0.14625,1,0,0,response3disk,0.003155082813464105,None,74.01175362083595,None,74.01175362083595,None,74.04568680899683,None,74.04568680899683,None,74.04568680899683,None,74.04568680899683,None,74.04568680899683,None,74.04568680899683,None,74.04568680899683,None,74.04568680899683,None,-0.00375,0.01375,1,0,0,rectangle,0.009517623635474592,None,74.04568680899683,None,74.04568680899683,None,74.04568680899683,None,,001,2020_Oct_12_1310,Simcolourproject_2stim_asymm_v1,2020.1.2,60.18770970137542,
5,7,FF,0,7,7,7,74.56534360803198,74.82845895702485,74.56534360803198,None,75.07918084703851,None,75.07918084703851,None,75.07918084703851,None,75.07918084703851,None,75.07918084703851,None,75.07918084703851,None,75.07918084703851,None,75.07918084703851,None,0.09375,-0.06375,1,0,0,response3disk,0.015520867833402008,None,75.07918084703851,None,75.07918084703851,None,75.32919923882,None,75.32919923882,None,75.32919923882,None,75.32919923882,None,75.32919923882,None,75.32919923882,None,75.32919923882,None,75.32919923882,None,0.09375,-0.06375,1,0,0,response3disk,0.005257758835796267,None,75.32919923882,None,75.32919923882,None,75.36220798699651,None,75.36220798699651,None,75.36220798699651,None,75.36220798699651,None,75.36220798699651,None,75.36220798699651,None,75.36220798699651,None,75.36220798699651,None,0.01875,-0.01125,1,0,0,rectangle,0.01138537161750719,None,75.36220798699651,None,75.36220798699651,None,75.36220798699651,None,,001,2020_Oct_12_1310,Simcolourproject_2stim_asymm_v1,2020.1.2,60.18770970137542,
5,4,FF,0,8,8,8,75.86280882300343,76.11334131500917,75.86280882300343,None,76.36453397502191,None,76.36453397502191,None,76.36453397502191,None,76.36453397502191,None,76.36453397502191,None,76.36453397502191,None,76.36453397502191,None,76.36453397502191,None,0.05375,-0.10625,1,0,0,response3disk,0.015539283747784793,None,76.36453397502191,None,76.36453397502191,None,76.61233399083139,None,76.61233399083139,None,76.61233399083139,None,76.61233399083139,None,76.61233399083139,None,76.61233399083139,None,76.61233399083139,None,76.61233399083139,None,0.05375,-0.10625,1,0,0,response3disk,0.005048926803283393,None,76.61233399083139,None,76.61233399083139,None,76.63283061998663,None,76.63283061998663,None,76.63283061998663,None,76.63283061998663,None,76.63283061998663,None,76.63283061998663,None,76.63283061998663,None,76.63283061998663,None,0.01,-0.015,1,0,0,rectangle,0.012430388655047864,None,76.63283061998663,None,76.63283061998663,None,76.63283061998663,None,,001,2020_Oct_12_1310,Simcolourproject_2stim_asymm_v1,2020.1.2,60.18770970137542,
2,1,PF,0,9,9,9,77.16632927104365,77.42942481400678,77.16632927104365,None,77.68051718600327,None,77.68051718600327,None,77.68051718600327,None,77.68051718600327,None,77.68051718600327,None,77.68051718600327,None,77.68051718600327,None,77.68051718600327,None,-0.03,-0.1,1,0,0,response5disk,0.01574456476373598,None,77.68051718600327,None,77.68051718600327,None,78.04765318778809,None,78.04765318778809,None,78.04765318778809,None,78.04765318778809,None,78.04765318778809,None,78.04765318778809,None,78.04765318778809,None,78.04765318778809,None,-0.03,-0.1,1,0,0,response5disk,0.0034153907909058034,None,78.04765318778809,None,78.04765318778809,None,78.07946263800841,None,78.07946263800841,None,78.07946263800841,None,78.07946263800841,None,78.07946263800841,None,78.07946263800841,None,78.07946263800841,None,78.07946263800841,None,0.01625,0.00375,1,0,0,rectangle,0.009694661595858634,None,78.07946263800841,None,78.07946263800841,None,78.07946263800841,None,,001,2020_Oct_12_1310,Simcolourproject_2stim_asymm_v1,2020.1.2,60.18770970137542,
7,9,PF,0,10,10,10,78.56375011702767,78.81435265101027,78.56375011702767,None,79.06554824701743,None,79.06554824701743,None,79.06554824701743,None,79.06554824701743,None,79.06554824701743,None,79.06554824701743,None,79.06554824701743,None,79.06554824701743,None,-0.0925,-0.03375,1,0,0,response5disk,0.015659097814932466,None,79.06554824701743,None,79.06554824701743,None,79.447334030841,None,79.447334030841,None,79.447334030841,None,79.447334030841,None,79.447334030841,None,79.447334030841,None,79.447334030841,None,79.447334030841,None,-0.0925,-0.03375,1,0,0,response5disk,0.002727875835262239,None,79.447334030841,None,79.447334030841,None,79.4799980520038,None,79.4799980520038,None,79.4799980520038,None,79.4799980520038,None,79.4799980520038,None,79.4799980520038,None,79.4799980520038,None,79.4799980520038,None,-0.01375,0.0125,1,0,0,rectangle,0.008805548655800521,None,79.4799980520038,None,79.4799980520038,None,79.4799980520038,None,,001,2020_Oct_12_1310,Simcolourproject_2stim_asymm_v1,2020.1.2,60.18770970137542,
9,2,FF,0,11,11,11,79.89720076700905,80.14750245801406,79.89720076700905,None,80.39841513201827,None,80.39841513201827,None,80.39841513201827,None,80.39841513201827,None,80.39841513201827,None,80.39841513201827,None,80.39841513201827,None,80.39841513201827,None,0.065,0.0975,1,0,0,response1disk,0.015625399712007493,None,80.39841513201827,None,80.39841513201827,None,80.76550238482886,None,80.76550238482886,None,80.76550238482886,None,80.76550238482886,None,80.76550238482886,None,80.76550238482886,None,80.76550238482886,None,80.76550238482886,None,0.065,0.0975,1,0,0,response1disk,0.00808448379393667,None,80.76550238482886,None,80.76550238482886,None,80.78178653301438,None,80.78178653301438,None,80.78178653301438,None,80.78178653301438,None,80.78178653301438,None,80.78178653301438,None,80.78178653301438,None,80.78178653301438,None,0.00375,-0.01625,1,0,0,rectangle,0.0158250606036745,None,80.78178653301438,None,80.78178653301438,None,80.78178653301438,None,,001,2020_Oct_12_1310,Simcolourproject_2stim_asymm_v1,2020.1.2,60.18770970137542,
5,6,FF,0,12,12,12,81.16720242099836,81.43207971000811,81.16720242099836,None,81.68251104000956,None,81.68251104000956,None,81.68251104000956,None,81.68251104000956,None,81.68251104000956,None,81.68251104000956,None,81.68251104000956,None,81.68251104000956,None,0.1075,0.0525,1,0,0,response1disk,0.015765477786771953,None,81.68251104000956,None,81.68251104000956,None,82.08238791478797,None,82.08238791478797,None,82.08238791478797,None,82.08238791478797,None,82.08238791478797,None,82.08238791478797,None,82.08238791478797,None,82.08238791478797,None,0.1075,0.0525,1,0,0,response1disk,0.0032928597647696733,None,82.08238791478797,None,82.08238791478797,None,82.11524809303228,None,82.11524809303228,None,82.11524809303228,None,82.11524809303228,None,82.11524809303228,None,82.11524809303228,None,82.11524809303228,None,82.11524809303228,None,0.01,-0.00625,1,0,0,rectangle,0.008697168610524386,None,82.11524809303228,None,82.11524809303228,None,82.11524809303228,None,,001,2020_Oct_12_1310,Simcolourproject_2stim_asymm_v1,2020.1.2,60.18770970137542,
4,2,FF,0,13,13,13,82.46574324602261,82.71602452598745,82.46574324602261,None,82.96656984899892,None,82.96656984899892,None,82.96656984899892,None,82.96656984899892,None,82.96656984899892,None,82.96656984899892,None,82.96656984899892,None,82.96656984899892,None,0.09875,-0.0725,1,0,0,response3disk,0.015618776786141098,None,82.96656984899892,None,82.96656984899892,None,83.24875527581898,None,83.24875527581898,None,83.24875527581898,None,83.24875527581898,None,83.24875527581898,None,83.24875527581898,None,83.24875527581898,None,83.24875527581898,None,0.09875,-0.0725,1,0,0,response3disk,0.004371103772427887,None,83.24875527581898,None,83.24875527581898,None,83.268636679044,None,83.268636679044,None,83.268636679044,None,83.268636679044,None,83.268636679044,None,83.268636679044,None,83.268636679044,None,83.268636679044,None,0.00375,-0.02,1,0,0,rectangle,0.012275563552975655,None,83.268636679044,None,83.268636679044,None,83.268636679044,None,,001,2020_Oct_12_1310,Simcolourproject_2stim_asymm_v1,2020.1.2,60.18770970137542,
2,2,PF,0,14,14,14,83.70325511501869,83.96577439003158,83.70325511501869,None,84.21872562199133,None,84.21872562199133,None,84.21872562199133,None,84.21872562199133,None,84.21872562199133,None,84.21872562199133,None,84.21872562199133,None,84.21872562199133,None,0.0575,-0.12375,1,0,0,response3disk,0.015461909817531705,None,84.21872562199133,None,84.21872562199133,None,84.44924401680473,None,84.44924401680473,None,84.44924401680473,None,84.44924401680473,None,84.44924401680473,None,84.44924401680473,None,84.44924401680473,None,84.44924401680473,None,0.0575,-0.12375,1,0,0,response3disk,0.005586301791481674,None,84.44924401680473,None,84.44924401680473,None,84.4663691400201,None,84.4663691400201,None,84.4663691400201,None,84.4663691400201,None,84.4663691400201,None,84.4663691400201,None,84.4663691400201,None,84.4663691400201,None,-0.0125,-0.0075,1,0,0,rectangle,0.014643632574006915,None,84.4663691400201,None,84.4663691400201,None,84.4663691400201,None,,001,2020_Oct_12_1310,Simcolourproject_2stim_asymm_v1,2020.1.2,60.18770970137542,
1,9,PF,0,15,15,15,85.10009016800905,85.3500659459969,85.10009016800905,None,85.6021189900348,None,85.6021189900348,None,85.6021189900348,None,85.6021189900348,None,85.6021189900348,None,85.6021189900348,None,85.6021189900348,None,85.6021189900348,None,-0.0375,-0.11625,1,0,0,response5disk,0.015627096698153764,None,85.6021189900348,None,85.6021189900348,None,85.93442599780391,None,85.93442599780391,None,85.93442599780391,None,85.93442599780391,None,85.93442599780391,None,85.93442599780391,None,85.93442599780391,None,85.93442599780391,None,-0.0375,-0.11625,1,0,0,response5disk,0.007241556770168245,None,85.93442599780391,None,85.93442599780391,None,85.95299059501849,None,85.95299059501849,None,85.95299059501849,None,85.95299059501849,None,85.95299059501849,None,85.95299059501849,None,85.95299059501849,None,85.95299059501849,None,0.005,-0.015,1,0,0,rectangle,0.013717930589336902,None,85.95299059501849,None,85.95299059501849,None,85.95299059501849,None,,001,2020_Oct_12_1310,Simcolourproject_2stim_asymm_v1,2020.1.2,60.18770970137542,
5,8,FF,0,16,16,16,86.43417921301443,86.68410189601127,86.43417921301443,None,86.93432787799975,None,86.93432787799975,None,86.93432787799975,None,86.93432787799975,None,86.93432787799975,None,86.93432787799975,None,86.93432787799975,None,86.93432787799975,None,-0.08375,-0.075,1,0,0,response5disk,0.01565703982487321,None,86.93432787799975,None,86.93432787799975,None,87.25118085581343,None,87.25118085581343,None,87.25118085581343,None,87.25118085581343,None,87.25118085581343,None,87.25118085581343,None,87.25118085581343,None,87.25118085581343,None,-0.08375,-0.07625,1,0,0,response5disk,0.003957531705964357,None,87.25118085581343,None,87.25118085581343,None,87.28377972601447,None,87.28377972601447,None,87.28377972601447,None,87.28377972601447,None,87.28377972601447,None,87.28377972601447,None,87.28377972601447,None,87.28377972601447,None,0.0125,-0.01,1,0,0,rectangle,0.011276793607976288,None,87.28377972601447,None,87.28377972601447,None,87.28377972601447,None,,001,2020_Oct_12_1310,Simcolourproject_2stim_asymm_v1,2020.1.2,60.18770970137542,
9,9,FF,0,17,17,17,87.85267451702384,88.11717590398621,87.85267451702384,None,88.36735856701853,None,88.36735856701853,None,88.36735856701853,None,88.36735856701853,None,88.36735856701853,None,88.36735856701853,None,88.36735856701853,None,88.36735856701853,None,0.08,-0.14875,1,0,0,response3disk,0.015668144798837602,None,88.36735856701853,None,88.36735856701853,None,88.66863681582035,None,88.66863681582035,None,88.66863681582035,None,88.66863681582035,None,88.66863681582035,None,88.66863681582035,None,88.66863681582035,None,88.66863681582035,None,0.08,-0.14875,1,0,0,response3disk,0.003807100816629827,None,88.66863681582035,None,88.66863681582035,None,88.68651122500887,None,88.68651122500887,None,88.68651122500887,None,88.68651122500887,None,88.68651122500887,None,88.68651122500887,None,88.68651122500887,None,88.68651122500887,None,0.00625,-0.01375,1,0,0,rectangle,0.012899279652629048,None,88.68651122500887,None,88.68651122500887,None,88.68651122500887,None,,001,2020_Oct_12_1310,Simcolourproject_2stim_asymm_v1,2020.1.2,60.18770970137542,
6,7,FF,0,18,18,18,89.1370780619909,89.40242532402044,89.1370780619909,None,89.65254226699471,None,89.65254226699471,None,89.65254226699471,None,89.65254226699471,None,89.65254226699471,None,89.65254226699471,None,89.65254226699471,None,89.65254226699471,None,0.06,-0.13125,1,0,0,response3disk,0.015868489746935666,None,89.65254226699471,None,89.65254226699471,None,90.03597501178737,None,90.03597501178737,None,90.03597501178737,None,90.03597501178737,None,90.03597501178737,None,90.03597501178737,None,90.03597501178737,None,90.03597501178737,None,0.06,-0.13125,1,0,0,response3disk,0.004411665722727776,None,90.03597501178737,None,90.03597501178737,None,90.05362502601929,None,90.05362502601929,None,90.05362502601929,None,90.05362502601929,None,90.05362502601929,None,90.05362502601929,None,90.05362502601929,None,90.05362502601929,None,0.015,-0.015,1,0,0,rectangle,0.01331646554172039,None,90.05362502601929,None,90.05362502601929,None,90.05362502601929,None,,001,2020_Oct_12_1310,Simcolourproject_2stim_asymm_v1,2020.1.2,60.18770970137542,
5,5,FF,0,19,19,19,90.52210915402975,90.78646592900623,90.52210915402975,None,91.03861699899426,None,91.03861699899426,None,91.03861699899426,None,91.03861699899426,None,91.03861699899426,None,91.03861699899426,None,91.03861699899426,None,91.03861699899426,None,0.105,-0.07125,1,0,0,response3disk,0.01563395676203072,None,91.03861699899426,None,91.03861699899426,None,91.319416437787,None,91.319416437787,None,91.319416437787,None,91.319416437787,None,91.319416437787,None,91.319416437787,None,91.319416437787,None,91.319416437787,None,0.105,-0.07125,1,0,0,response3disk,0.004350593721028417,None,91.319416437787,None,91.319416437787,None,91.33686661301181,None,91.33686661301181,None,91.33686661301181,None,91.33686661301181,None,91.33686661301181,None,91.33686661301181,None,91.33686661301181,None,91.33686661301181,None,-0.00125,0.00125,1,0,0,rectangle,0.013424724573269486,None,91.33686661301181,None,91.33686661301181,None,91.33686661301181,None,,001,2020_Oct_12_1310,Simcolourproject_2stim_asymm_v1,2020.1.2,60.18770970137542,
8,1,FF,0,20,20,20,91.72169205301907,91.98709260800388,91.72169205301907,None,92.23757232603384,None,92.23757232603384,None,92.23757232603384,None,92.23757232603384,None,92.23757232603384,None,92.23757232603384,None,92.23757232603384,None,92.23757232603384,None,0.045,-0.10125,1,0,0,response3disk,0.015679028758313507,None,92.23757232603384,None,92.23757232603384,None,92.503893288807,None,92.503893288807,None,92.503893288807,None,92.503893288807,None,92.503893288807,None,92.503893288807,None,92.503893288807,None,92.503893288807,None,0.045,-0.10125,1,0,0,response3disk,0.00944580975919962,None,92.503893288807,None,92.503893288807,None,92.51980618998641,None,92.51980618998641,None,92.51980618998641,None,92.51980618998641,None,92.51980618998641,None,92.51980618998641,None,92.51980618998641,None,92.51980618998641,None,0.00625,-0.01125,1,0,0,rectangle,0.01632837054785341,None,92.51980618998641,None,92.51980618998641,None,92.51980618998641,None,,001,2020_Oct_12_1310,Simcolourproject_2stim_asymm_v1,2020.1.2,60.18770970137542,
6,3,FF,0,21,21,21,92.97250663500745,93.23740808700677,92.97250663500745,None,93.48803541203961,None,93.48803541203961,None,93.48803541203961,None,93.48803541203961,None,93.48803541203961,None,93.48803541203961,None,93.48803541203961,None,93.48803541203961,None,0.10625,-0.0575,1,0,0,response3disk,0.01543148880591616,None,93.48803541203961,None,93.48803541203961,None,93.90430753179825,None,93.90430753179825,None,93.90430753179825,None,93.90430753179825,None,93.90430753179825,None,93.90430753179825,None,93.90430753179825,None,93.90430753179825,None,0.10625,-0.0575,1,0,0,response3disk,0.005392433726228774,None,93.90430753179825,None,93.90430753179825,None,93.92099779500859,None,93.92099779500859,None,93.92099779500859,None,93.92099779500859,None,93.92099779500859,None,93.92099779500859,None,93.92099779500859,None,93.92099779500859,None,0.01375,-0.005,1,0,0,rectangle,0.014480876619927585,None,93.92099779500859,None,93.92099779500859,None,93.92099779500859,None,,001,2020_Oct_12_1310,Simcolourproject_2stim_asymm_v1,2020.1.2,60.18770970137542,
8,2,FF,0,22,22,22,94.35561986203538,94.60522869299166,94.35561986203538,None,94.87174889503513,None,94.87174889503513,None,94.87174889503513,None,94.87174889503513,None,94.87174889503513,None,94.87174889503513,None,94.87174889503513,None,94.87174889503513,None,0.05875,-0.1,1,0,0,response3disk,0.01596118276938796,None,94.87174889503513,None,94.87174889503513,None,95.05594037283444,None,95.05594037283444,None,95.05594037283444,None,95.05594037283444,None,95.05594037283444,None,95.05594037283444,None,95.05594037283444,None,95.05594037283444,None,0.05875,-0.1,1,0,0,response3disk,0.0026515647768974304,None,95.05594037283444,None,95.05594037283444,None,95.08791327301878,None,95.08791327301878,None,95.08791327301878,None,95.08791327301878,None,95.08791327301878,None,95.08791327301878,None,95.08791327301878,None,95.08791327301878,None,0.02625,-0.0175,1,0,0,rectangle,0.00308864563703537,None,95.08791327301878,None,95.08791327301878,None,95.08791327301878,None,,001,2020_Oct_12_1310,Simcolourproject_2stim_asymm_v1,2020.1.2,60.18770970137542,
8,7,PF,0,23,23,23,95.4744434170425,95.73913512699073,95.4744434170425,None,95.98892941203667,None,95.98892941203667,None,95.98892941203667,None,95.98892941203667,None,95.98892941203667,None,95.98892941203667,None,95.98892941203667,None,95.98892941203667,None,-0.03125,-0.085,1,0,0,response5disk,0.01587488583754748,None,95.98892941203667,None,95.98892941203667,None,96.67222466781968,None,96.67222466781968,None,96.67222466781968,None,96.67222466781968,None,96.67222466781968,None,96.67222466781968,None,96.67222466781968,None,96.67222466781968,None,-0.03125,-0.085,1,0,0,response5disk,0.004430841829162091,None,96.67222466781968,None,96.67222466781968,None,96.69044577900786,None,96.69044577900786,None,96.69044577900786,None,96.69044577900786,None,96.69044577900786,None,96.69044577900786,None,96.69044577900786,None,96.69044577900786,None,0.005,0.0075,1,0,0,rectangle,0.013414422632195055,None,96.69044577900786,None,96.69044577900786,None,96.69044577900786,None,,001,2020_Oct_12_1310,Simcolourproject_2stim_asymm_v1,2020.1.2,60.18770970137542,
1,2,PF,0,24,24,24,97.04158082400681,97.30581728601828,97.04158082400681,None,97.55725134100066,None,97.55725134100066,None,97.55725134100066,None,97.55725134100066,None,97.55725134100066,None,97.55725134100066,None,97.55725134100066,None,97.55725134100066,None,-0.065,0.0775,1,0,0,response7disk,0.015642806771211326,None,97.55725134100066,None,97.55725134100066,None,97.88962184180272,None,97.88962184180272,None,97.88962184180272,None,97.88962184180272,None,97.88962184180272,None,97.88962184180272,None,97.88962184180272,None,97.88962184180272,None,-0.065,0.0775,1,0,0,response7disk,0.0063546967576257885,None,97.88962184180272,None,97.88962184180272,None,97.90679681801703,None,97.90679681801703,None,97.90679681801703,None,97.90679681801703,None,97.90679681801703,None,97.90679681801703,None,97.90679681801703,None,97.90679681801703,None,-0.0075,0.02875,1,0,0,rectangle,0.014394391619134694,None,97.90679681801703,None,97.90679681801703,None,97.90679681801703,None,,001,2020_Oct_12_1310,Simcolourproject_2stim_asymm_v1,2020.1.2,60.18770970137542,
5,3,FF,0,25,25,25,98.35831203102134,98.62306633102708,98.35831203102134,None,98.87305190600455,None,98.87305190600455,None,98.87305190600455,None,98.87305190600455,None,98.87305190600455,None,98.87305190600455,None,98.87305190600455,None,98.87305190600455,None,0.05875,0.08,1,0,0,response1disk,0.01567854976747185,None,98.87305190600455,None,98.87305190600455,None,99.17431228482164,None,99.17431228482164,None,99.17431228482164,None,99.17431228482164,None,99.17431228482164,None,99.17431228482164,None,99.17431228482164,None,99.17431228482164,None,0.05875,0.08,1,0,0,response1disk,0.004583036818075925,None,99.17431228482164,None,99.17431228482164,None,99.19248330802657,None,99.19248330802657,None,99.19248330802657,None,99.19248330802657,None,99.19248330802657,None,99.19248330802657,None,99.19248330802657,None,99.19248330802657,None,0.01625,0.0025,1,0,0,rectangle,0.013573602598626167,None,99.19248330802657,None,99.19248330802657,None,99.19248330802657,None,,001,2020_Oct_12_1310,Simcolourproject_2stim_asymm_v1,2020.1.2,60.18770970137542,
6,3,PF,0,26,26,26,99.59208771004342,99.8572457350092,99.59208771004342,None,100.10727674799273,None,100.10727674799273,None,100.10727674799273,None,100.10727674799273,None,100.10727674799273,None,100.10727674799273,None,100.10727674799273,None,100.10727674799273,None,0.1175,0.03375,1,0,0,response1disk,0.015851328789722174,None,100.10727674799273,None,100.10727674799273,None,100.99131895283935,None,100.99131895283935,None,100.99131895283935,None,100.99131895283935,None,100.99131895283935,None,100.99131895283935,None,100.99131895283935,None,100.99131895283935,None,0.1175,0.03375,1,0,0,response1disk,0.007257478777319193,None,100.99131895283935,None,100.99131895283935,None,101.00828881101916,None,101.00828881101916,None,101.00828881101916,None,101.00828881101916,None,101.00828881101916,None,101.00828881101916,None,101.00828881101916,None,101.00828881101916,None,-0.025,0.01125,1,0,0,rectangle,0.015530008648056537,None,101.00828881101916,None,101.00828881101916,None,101.00828881101916,None,,001,2020_Oct_12_1310,Simcolourproject_2stim_asymm_v1,2020.1.2,60.18770970137542,
1,8,FF,0,27,27,27,101.35954522702377,101.6253359800321,101.35954522702377,None,101.87511123501463,None,101.87511123501463,None,101.87511123501463,None,101.87511123501463,None,101.87511123501463,None,101.87511123501463,None,101.87511123501463,None,101.87511123501463,None,0.03,-0.13375,1,0,0,response3disk,0.01567655976396054,None,101.87511123501463,None,101.87511123501463,None,102.09111442879075,None,102.09111442879075,None,102.09111442879075,None,102.09111442879075,None,102.09111442879075,None,102.09111442879075,None,102.09111442879075,None,102.09111442879075,None,0.03,-0.13375,1,0,0,response3disk,0.003926484729163349,None,102.09111442879075,None,102.09111442879075,None,102.11030982399825,None,102.11030982399825,None,102.11030982399825,None,102.11030982399825,None,102.11030982399825,None,102.11030982399825,None,102.11030982399825,None,102.11030982399825,None,-0.00875,-0.02125,1,0,0,rectangle,0.012053439626470208,None,102.11030982399825,None,102.11030982399825,None,102.11030982399825,None,,001,2020_Oct_12_1310,Simcolourproject_2stim_asymm_v1,2020.1.2,60.18770970137542,
1,5,PF,0,28,28,28,102.5122943840106,102.77561433200026,102.5122943840106,None,103.02530937403208,None,103.02530937403208,None,103.02530937403208,None,103.02530937403208,None,103.02530937403208,None,103.02530937403208,None,103.02530937403208,None,103.02530937403208,None,0.11875,-0.1075,1,0,0,response3disk,0.01579981279792264,None,103.02530937403208,None,103.02530937403208,None,103.22528140080394,None,103.22528140080394,None,103.22528140080394,None,103.22528140080394,None,103.22528140080394,None,103.22528140080394,None,103.22528140080394,None,103.22528140080394,None,0.11875,-0.1075,1,0,0,response3disk,0.004806339798960835,None,103.22528140080394,None,103.22528140080394,None,103.24221462599235,None,103.24221462599235,None,103.24221462599235,None,103.24221462599235,None,103.24221462599235,None,103.24221462599235,None,103.24221462599235,None,103.24221462599235,None,-0.045,-0.015,1,0,0,rectangle,0.013855915633030236,None,103.24221462599235,None,103.24221462599235,None,103.24221462599235,None,,001,2020_Oct_12_1310,Simcolourproject_2stim_asymm_v1,2020.1.2,60.18770970137542,
7,6,PF,0,29,29,29,103.59371080901474,103.85890592401847,103.59371080901474,None,104.11051188403508,None,104.11051188403508,None,104.11051188403508,None,104.11051188403508,None,104.11051188403508,None,104.11051188403508,None,104.11051188403508,None,104.11051188403508,None,-0.04875,-0.14,1,0,0,response5disk,0.015544069814495742,None,104.11051188403508,None,104.11051188403508,None,104.35869999962159,None,104.35869999962159,None,104.35869999962159,None,104.35869999962159,None,104.35869999962159,None,104.35869999962159,None,104.35869999962159,None,104.35869999962159,None,-0.04875,-0.14,1,0,0,response5disk,0.0161784136435017,None,104.35869999962159,None,104.35869999962159,None,104.37614035600564,None,104.37614035600564,None,104.37614035600564,None,104.37614035600564,None,104.37614035600564,None,104.37614035600564,None,104.37614035600564,None,104.37614035600564,None,-0.0075,-0.03375,1,0,0,rectangle,0.001476524630561471,None,104.37614035600564,None,104.37614035600564,None,104.37614035600564,None,,001,2020_Oct_12_1310,Simcolourproject_2stim_asymm_v1,2020.1.2,60.18770970137542,
3,4,PF,0,30,30,30,104.71173175302101,104.97646247100784,104.71173175302101,None,105.22704649803927,None,105.22704649803927,None,105.22704649803927,None,105.22704649803927,None,105.22704649803927,None,105.22704649803927,None,105.22704649803927,None,105.22704649803927,None,-0.09625,-0.075,1,0,0,response5disk,0.015682158758863807,None,105.22704649803927,None,105.22704649803927,None,105.4295971758198,None,105.4295971758198,None,105.4295971758198,None,105.4295971758198,None,105.4295971758198,None,105.4295971758198,None,105.4295971758198,None,105.4295971758198,None,-0.09625,-0.075,1,0,0,response5disk,0.0022478647879324853,None,105.4295971758198,None,105.4295971758198,None,105.46048338199034,None,105.46048338199034,None,105.46048338199034,None,105.46048338199034,None,105.46048338199034,None,105.46048338199034,None,105.46048338199034,None,105.46048338199034,None,0.01,-0.01,1,0,0,rectangle,0.004705793573521078,None,105.46048338199034,None,105.46048338199034,None,105.46048338199034,None,,001,2020_Oct_12_1310,Simcolourproject_2stim_asymm_v1,2020.1.2,60.18770970137542,
7,6,FF,0,31,31,31,105.81161910801893,106.07635878800647,105.81161910801893,None,106.32636797503801,None,106.32636797503801,None,106.32636797503801,None,106.32636797503801,None,106.32636797503801,None,106.32636797503801,None,106.32636797503801,None,106.32636797503801,None,0.065,-0.13375,1,0,0,response3disk,0.01565615681465715,None,106.32636797503801,None,106.32636797503801,None,106.4442811887944,None,106.4442811887944,None,106.4442811887944,None,106.4442811887944,None,106.4442811887944,None,106.4442811887944,None,106.4442811887944,None,106.4442811887944,None,0.065,-0.13375,1,0,0,response3disk,0.0017365907551720738,None,106.4442811887944,None,106.4442811887944,None,106.47691114299232,None,106.47691114299232,None,106.47691114299232,None,106.47691114299232,None,106.47691114299232,None,106.47691114299232,None,106.47691114299232,None,106.47691114299232,None,0.025,-0.00625,1,0,0,rectangle,0.009336079587228596,None,106.47691114299232,None,106.47691114299232,None,106.47691114299232,None,,001,2020_Oct_12_1310,Simcolourproject_2stim_asymm_v1,2020.1.2,60.18770970137542,
7,2,PF,0,32,32,32,106.82898347498849,107.09311686799629,106.82898347498849,None,107.34443654003553,None,107.34443654003553,None,107.34443654003553,None,107.34443654003553,None,107.34443654003553,None,107.34443654003553,None,107.34443654003553,None,107.34443654003553,None,0.1175,-0.0675,1,0,0,response3disk,0.015421894728206098,None,107.34443654003553,None,107.34443654003553,None,107.61070875680306,None,107.61070875680306,None,107.61070875680306,None,107.61070875680306,None,107.61070875680306,None,107.61070875680306,None,107.61070875680306,None,107.61070875680306,None,0.1175,-0.0675,1,0,0,response3disk,0.005027467792388052,None,107.61070875680306,None,107.61070875680306,None,107.62787344498793,None,107.62787344498793,None,107.62787344498793,None,107.62787344498793,None,107.62787344498793,None,107.62787344498793,None,107.62787344498793,None,107.62787344498793,None,-0.01,0.00625,1,0,0,rectangle,0.014051952632144094,None,107.62787344498793,None,107.62787344498793,None,107.62787344498793,None,,001,2020_Oct_12_1310,Simcolourproject_2stim_asymm_v1,2020.1.2,60.18770970137542,
6,4,PF,0,33,33,33,107.99615317198914,108.26137541502248,107.99615317198914,None,108.51131269702455,None,108.51131269702455,None,108.51131269702455,None,108.51131269702455,None,108.51131269702455,None,108.51131269702455,None,108.51131269702455,None,108.51131269702455,None,0.04125,-0.11125,1,0,0,response3disk,0.015685042715631425,None,108.51131269702455,None,108.51131269702455,None,108.74424507081275,None,108.74424507081275,None,108.74424507081275,None,108.74424507081275,None,108.74424507081275,None,108.74424507081275,None,108.74424507081275,None,108.74424507081275,None,0.04125,-0.11125,1,0,0,response3disk,0.003369836776982993,None,108.74424507081275,None,108.74424507081275,None,108.76343090401497,None,108.76343090401497,None,108.76343090401497,None,108.76343090401497,None,108.76343090401497,None,108.76343090401497,None,108.76343090401497,None,108.76343090401497,None,-0.005,-0.01,1,0,0,rectangle,0.011946174607146531,None,108.76343090401497,None,108.76343090401497,None,108.76343090401497,None,,001,2020_Oct_12_1310,Simcolourproject_2stim_asymm_v1,2020.1.2,60.18770970137542,
7,7,FF,0,34,34,34,109.14693665399682,109.41168091702275,109.14693665399682,None,109.66265526699135,None,109.66265526699135,None,109.66265526699135,None,109.66265526699135,None,109.66265526699135,None,109.66265526699135,None,109.66265526699135,None,109.66265526699135,None,0.04875,-0.1,1,0,0,response3disk,0.015647093823645264,None,109.66265526699135,None,109.66265526699135,None,109.82849716880591,None,109.82849716880591,None,109.82849716880591,None,109.82849716880591,None,109.82849716880591,None,109.82849716880591,None,109.82849716880591,None,109.82849716880591,None,0.04875,-0.1,1,0,0,response3disk,0.0032634417875669897,None,109.82849716880591,None,109.82849716880591,None,109.84789961401839,None,109.84789961401839,None,109.84789961401839,None,109.84789961401839,None,109.84789961401839,None,109.84789961401839,None,109.84789961401839,None,109.84789961401839,None,-0.02,0.01375,1,0,0,rectangle,0.011627780622802675,None,109.84789961401839,None,109.84789961401839,None,109.84789961401839,None,,001,2020_Oct_12_1310,Simcolourproject_2stim_asymm_v1,2020.1.2,60.18770970137542,
4,8,FF,0,35,35,35,110.24761347903404,110.51259715401102,110.24761347903404,None,110.76248992903857,None,110.76248992903857,None,110.76248992903857,None,110.76248992903857,None,110.76248992903857,None,110.76248992903857,None,110.76248992903857,None,110.76248992903857,None,-0.05625,0.09125,1,0,0,response7disk,0.015862520784139633,None,110.76248992903857,None,110.76248992903857,None,110.96239182081771,None,110.96239182081771,None,110.96239182081771,None,110.96239182081771,None,110.96239182081771,None,110.96239182081771,None,110.96239182081771,None,110.96239182081771,None,-0.05625,0.09125,1,0,0,response7disk,0.004719533782918006,None,110.96239182081771,None,110.96239182081771,None,110.97958055604249,None,110.97958055604249,None,110.97958055604249,None,110.97958055604249,None,110.97958055604249,None,110.97958055604249,None,110.97958055604249,None,110.97958055604249,None,0.00125,0.0,1,0,0,rectangle,0.013757179607637227,None,110.97958055604249,None,110.97958055604249,None,110.97958055604249,None,,001,2020_Oct_12_1310,Simcolourproject_2stim_asymm_v1,2020.1.2,60.18770970137542,
3,2,PF,0,36,36,36,111.33093535603257,111.59611203504028,111.33093535603257,None,111.84712141304044,None,111.84712141304044,None,111.84712141304044,None,111.84712141304044,None,111.84712141304044,None,111.84712141304044,None,111.84712141304044,None,111.84712141304044,None,0.1125,0.0275,1,0,0,response1disk,0.015355359762907028,None,111.84712141304044,None,111.84712141304044,None,112.0632194947917,None,112.0632194947917,None,112.0632194947917,None,112.0632194947917,None,112.0632194947917,None,112.0632194947917,None,112.0632194947917,None,112.0632194947917,None,0.1125,0.0275,1,0,0,response1disk,0.005115856707561761,None,112.0632194947917,None,112.0632194947917,None,112.0799296030309,None,112.0799296030309,None,112.0799296030309,None,112.0799296030309,None,112.0799296030309,None,112.0799296030309,None,112.0799296030309,None,112.0799296030309,None,-0.035,-0.00125,1,0,0,rectangle,0.014137257589027286,None,112.0799296030309,None,112.0799296030309,None,112.0799296030309,None,,001,2020_Oct_12_1310,Simcolourproject_2stim_asymm_v1,2020.1.2,60.18770970137542,
8,6,FF,0,37,37,37,112.46574663801584,112.72964743000921,112.46574663801584,None,112.9801191079896,None,112.9801191079896,None,112.9801191079896,None,112.9801191079896,None,112.9801191079896,None,112.9801191079896,None,112.9801191079896,None,112.9801191079896,None,0.0575,-0.10875,1,0,0,response3disk,0.01565521681914106,None,112.9801191079896,None,112.9801191079896,None,113.13003629681188,None,113.13003629681188,None,113.13003629681188,None,113.13003629681188,None,113.13003629681188,None,113.13003629681188,None,113.13003629681188,None,113.13003629681188,None,0.0575,-0.10875,1,0,0,response3disk,0.004390493733808398,None,113.13003629681188,None,113.13003629681188,None,113.14816502004396,None,113.14816502004396,None,113.14816502004396,None,113.14816502004396,None,113.14816502004396,None,113.14816502004396,None,113.14816502004396,None,113.14816502004396,None,0.01,-0.02875,1,0,0,rectangle,0.013334633607883006,None,113.14816502004396,None,113.14816502004396,None,113.14816502004396,None,,001,2020_Oct_12_1310,Simcolourproject_2stim_asymm_v1,2020.1.2,60.18770970137542,
,,,,,,,113.54891448299168,113.81411307799863,113.54891448299168,None,,,,,,,,,,,,,,,,,,,,,,,,,,,,,,,,,,,,,,,,,,,,,,,,,,,,,,,,,,,,,,,,,,,,,,,,,,,,,,,,,,,,,,,,,,,,,
