Colour_1,Colour_2,Ecc,trials.thisRepN,trials.thisTrialN,trials.thisN,trials.thisIndex,Circle_1.started,Circle_1.stopped,centre_cross4.started,centre_cross4.stopped,response1disk.started,response1disk.stopped,response2disk.started,response2disk.stopped,response3disk.started,response3disk.stopped,response4disk.started,response4disk.stopped,response5disk.started,response5disk.stopped,response6disk.started,response6disk.stopped,response7disk.started,response7disk.stopped,response8disk.started,response8disk.stopped,mouse.x,mouse.y,mouse.leftButton,mouse.midButton,mouse.rightButton,mouse.clicked_name,mouse.started,mouse.stopped,Circle_2.started,Circle_2.stopped,text_23.started,text_23.stopped,response1disk_3.started,response1disk_3.stopped,response2disk_3.started,response2disk_3.stopped,response3disk_3.started,response3disk_3.stopped,response4disk_3.started,response4disk_3.stopped,response5disk_3.started,response5disk_3.stopped,response6disk_3.started,response6disk_3.stopped,response7disk_3.started,response7disk_3.stopped,response8disk_3.started,response8disk_3.stopped,mouse_3.x,mouse_3.y,mouse_3.leftButton,mouse_3.midButton,mouse_3.rightButton,mouse_3.clicked_name,mouse_3.started,mouse_3.stopped,text_26.started,text_26.stopped,rectangle_2.started,rectangle_2.stopped,response1disk_2.started,response1disk_2.stopped,response2disk_2.started,response2disk_2.stopped,response3disk_2.started,response3disk_2.stopped,response4disk_2.started,response4disk_2.stopped,response5disk_2.started,response5disk_2.stopped,response6disk_2.started,response6disk_2.stopped,response7disk_2.started,response7disk_2.stopped,response8disk_2.started,response8disk_2.stopped,mouse_2.x,mouse_2.y,mouse_2.leftButton,mouse_2.midButton,mouse_2.rightButton,mouse_2.clicked_name,mouse_2.started,mouse_2.stopped,rectangle.started,rectangle.stopped,text_25.started,text_25.stopped,text_24.started,text_24.stopped,participant,session,date,expName,psychopyVersion,frameRate,
6,6,PF,0,0,0,0,65.94334579998394,66.20788346399786,65.94334579998394,None,66.44007399398834,None,66.44007399398834,None,66.44007399398834,None,66.44007399398834,None,66.44007399398834,None,66.44007399398834,None,66.44007399398834,None,66.44007399398834,None,-0.06125,-0.10125,1,0,0,response5disk,0.015391997119877487,None,66.44007399398834,None,66.44007399398834,None,None,None,None,None,None,None,None,None,None,None,None,None,None,None,None,None,-0.06125,-0.10125,1,0,0,response5disk,None,None,None,None,None,None,68.39164495898876,None,68.39164495898876,None,68.39164495898876,None,68.39164495898876,None,68.39164495898876,None,68.39164495898876,None,68.39164495898876,None,68.39164495898876,None,-0.02375,-0.00125,1,0,0,rectangle,0.009645788290072232,None,68.39164495898876,None,68.39164495898876,None,68.39164495898876,None,,001,2020_Oct_12_1232,Simcolourproject_2stim_asymm_v1,2020.1.2,59.90287383565077,
1,3,PF,0,1,1,1,68.79209556500427,69.04179169796407,68.79209556500427,None,69.29291171696968,None,69.29291171696968,None,69.29291171696968,None,69.29291171696968,None,69.29291171696968,None,69.29291171696968,None,69.29291171696968,None,69.29291171696968,None,0.06375,-0.135,1,0,0,response3disk,0.015816473111044616,None,69.29291171696968,None,69.29291171696968,None,None,None,None,None,None,None,None,None,None,None,None,None,None,None,None,None,0.06375,-0.135,1,0,0,response3disk,None,None,None,None,None,None,69.57460907497443,None,69.57460907497443,None,69.57460907497443,None,69.57460907497443,None,69.57460907497443,None,69.57460907497443,None,69.57460907497443,None,69.57460907497443,None,0.00375,-0.03625,1,0,0,rectangle,0.007704355171881616,None,69.57460907497443,None,69.57460907497443,None,69.57460907497443,None,,001,2020_Oct_12_1232,Simcolourproject_2stim_asymm_v1,2020.1.2,59.90287383565077,
1,2,FF,0,2,2,2,69.92902563797543,70.19244287098991,69.92902563797543,None,70.4431615609792,None,70.4431615609792,None,70.4431615609792,None,70.4431615609792,None,70.4431615609792,None,70.4431615609792,None,70.4431615609792,None,70.4431615609792,None,-0.04125,-0.11875,1,0,0,response5disk,0.01580416806973517,None,70.4431615609792,None,70.4431615609792,None,None,None,None,None,None,None,None,None,None,None,None,None,None,None,None,None,-0.04125,-0.11875,1,0,0,response5disk,None,None,None,None,None,None,72.42685767199146,None,72.42685767199146,None,72.42685767199146,None,72.42685767199146,None,72.42685767199146,None,72.42685767199146,None,72.42685767199146,None,72.42685767199146,None,0.0,0.01,1,0,0,rectangle,0.010453620227053761,None,72.42685767199146,None,72.42685767199146,None,72.42685767199146,None,,001,2020_Oct_12_1232,Simcolourproject_2stim_asymm_v1,2020.1.2,59.90287383565077,
3,8,PF,0,3,3,3,72.77959552698303,73.0435520199826,72.77959552698303,None,73.29429089295445,None,73.29429089295445,None,73.29429089295445,None,73.29429089295445,None,73.29429089295445,None,73.29429089295445,None,73.29429089295445,None,73.29429089295445,None,-0.10125,-0.055,1,0,0,response5disk,0.01580639008898288,None,73.29429089295445,None,73.29429089295445,None,None,None,None,None,None,None,None,None,None,None,None,None,None,None,None,None,-0.10125,-0.055,1,0,0,response5disk,None,None,None,None,None,None,73.8974479669705,None,73.8974479669705,None,73.8974479669705,None,73.8974479669705,None,73.8974479669705,None,73.8974479669705,None,73.8974479669705,None,73.8974479669705,None,-0.00875,0.0125,1,0,0,rectangle,0.012571787287015468,None,73.8974479669705,None,73.8974479669705,None,73.8974479669705,None,,001,2020_Oct_12_1232,Simcolourproject_2stim_asymm_v1,2020.1.2,59.90287383565077,
3,3,PF,0,4,4,4,74.26405810500728,74.52783729298972,74.26405810500728,None,74.77749826095533,None,74.77749826095533,None,74.77749826095533,None,74.77749826095533,None,74.77749826095533,None,74.77749826095533,None,74.77749826095533,None,74.77749826095533,None,0.095,-0.11125,1,0,0,response3disk,0.015944312093779445,None,74.77749826095533,None,74.77749826095533,None,None,None,None,None,None,None,None,None,None,None,None,None,None,None,None,None,0.095,-0.11125,1,0,0,response3disk,None,None,None,None,None,None,75.04591527895536,None,75.04591527895536,None,75.04591527895536,None,75.04591527895536,None,75.04591527895536,None,75.04591527895536,None,75.04591527895536,None,75.04591527895536,None,0.005,-0.00125,1,0,0,rectangle,0.013820081192534417,None,75.04591527895536,None,75.04591527895536,None,75.04591527895536,None,,001,2020_Oct_12_1232,Simcolourproject_2stim_asymm_v1,2020.1.2,59.90287383565077,
6,1,FF,0,5,5,5,75.52970507595455,75.79511388397077,75.52970507595455,None,76.02841851400444,None,76.02841851400444,None,76.02841851400444,None,76.02841851400444,None,76.02841851400444,None,76.02841851400444,None,76.02841851400444,None,76.02841851400444,None,0.13125,-0.035,1,0,0,response3disk,0.01572678709635511,None,76.02841851400444,None,76.02841851400444,None,None,None,None,None,None,None,None,None,None,None,None,None,None,None,None,None,0.13125,-0.035,1,0,0,response3disk,None,None,None,None,None,None,76.43123143195407,None,76.43123143195407,None,76.43123143195407,None,76.43123143195407,None,76.43123143195407,None,76.43123143195407,None,76.43123143195407,None,76.43123143195407,None,0.015,-0.00625,1,0,0,rectangle,0.011652265267912298,None,76.43123143195407,None,76.43123143195407,None,76.43123143195407,None,,001,2020_Oct_12_1232,Simcolourproject_2stim_asymm_v1,2020.1.2,59.90287383565077,
9,8,FF,0,6,6,6,76.83145802997751,77.09564624697668,76.83145802997751,None,77.34624999499647,None,77.34624999499647,None,77.34624999499647,None,77.34624999499647,None,77.34624999499647,None,77.34624999499647,None,77.34624999499647,None,77.34624999499647,None,0.05625,0.09625,1,0,0,response1disk,0.015734497108496726,None,77.34624999499647,None,77.34624999499647,None,None,None,None,None,None,None,None,None,None,None,None,None,None,None,None,None,0.05625,0.09625,1,0,0,response1disk,None,None,None,None,None,None,77.89561675698496,None,77.89561675698496,None,77.89561675698496,None,77.89561675698496,None,77.89561675698496,None,77.89561675698496,None,77.89561675698496,None,77.89561675698496,None,-0.005,-0.00125,1,0,0,rectangle,0.009055500151589513,None,77.89561675698496,None,77.89561675698496,None,77.89561675698496,None,,001,2020_Oct_12_1232,Simcolourproject_2stim_asymm_v1,2020.1.2,59.90287383565077,
5,7,FF,0,7,7,7,78.28224303695606,78.54659526096657,78.28224303695606,None,78.79736677597975,None,78.79736677597975,None,78.79736677597975,None,78.79736677597975,None,78.79736677597975,None,78.79736677597975,None,78.79736677597975,None,78.79736677597975,None,0.05875,-0.08875,1,0,0,response3disk,0.015689131105318666,None,78.79736677597975,None,78.79736677597975,None,None,None,None,None,None,None,None,None,None,None,None,None,None,None,None,None,0.05875,-0.08875,1,0,0,response3disk,None,None,None,None,None,None,79.29615626495797,None,79.29615626495797,None,79.29615626495797,None,79.29615626495797,None,79.29615626495797,None,79.29615626495797,None,79.29615626495797,None,79.29615626495797,None,0.015,0.0025,1,0,0,rectangle,0.011979533242993057,None,79.29615626495797,None,79.29615626495797,None,79.29615626495797,None,,001,2020_Oct_12_1232,Simcolourproject_2stim_asymm_v1,2020.1.2,59.90287383565077,
5,4,FF,0,8,8,8,79.78333832899807,80.04718923097244,79.78333832899807,None,80.29796566296136,None,80.29796566296136,None,80.29796566296136,None,80.29796566296136,None,80.29796566296136,None,80.29796566296136,None,80.29796566296136,None,80.29796566296136,None,-0.05125,-0.1,1,0,0,response5disk,0.015777953143697232,None,80.29796566296136,None,80.29796566296136,None,None,None,None,None,None,None,None,None,None,None,None,None,None,None,None,None,-0.05125,-0.1,1,0,0,response5disk,None,None,None,None,None,None,80.83389058196917,None,80.83389058196917,None,80.83389058196917,None,80.83389058196917,None,80.83389058196917,None,80.83389058196917,None,80.83389058196917,None,80.83389058196917,None,-0.00375,0.00625,1,0,0,rectangle,0.012397580198012292,None,80.83389058196917,None,80.83389058196917,None,80.83389058196917,None,,001,2020_Oct_12_1232,Simcolourproject_2stim_asymm_v1,2020.1.2,59.90287383565077,
2,1,PF,0,9,9,9,81.36830849997932,81.63133429497248,81.36830849997932,None,81.88347428198904,None,81.88347428198904,None,81.88347428198904,None,81.88347428198904,None,81.88347428198904,None,81.88347428198904,None,81.88347428198904,None,81.88347428198904,None,0.10875,-0.0575,1,0,0,response3disk,0.01552692212862894,None,81.88347428198904,None,81.88347428198904,None,None,None,None,None,None,None,None,None,None,None,None,None,None,None,None,None,0.10875,-0.0575,1,0,0,response3disk,None,None,None,None,None,None,82.3811502919998,None,82.3811502919998,None,82.3811502919998,None,82.3811502919998,None,82.3811502919998,None,82.3811502919998,None,82.3811502919998,None,82.3811502919998,None,-0.0075,-0.00625,1,0,0,rectangle,0.011007666180375963,None,82.3811502919998,None,82.3811502919998,None,82.3811502919998,None,,001,2020_Oct_12_1232,Simcolourproject_2stim_asymm_v1,2020.1.2,59.90287383565077,
7,9,PF,0,10,10,10,82.83595923497342,83.09941494598752,82.83595923497342,None,83.34846498997649,None,83.34846498997649,None,83.34846498997649,None,83.34846498997649,None,83.34846498997649,None,83.34846498997649,None,83.34846498997649,None,83.34846498997649,None,-0.09625,0.035,1,0,0,response7disk,0.015720354160293937,None,83.34846498997649,None,83.34846498997649,None,None,None,None,None,None,None,None,None,None,None,None,None,None,None,None,None,-0.09625,0.035,1,0,0,response7disk,None,None,None,None,None,None,83.78157906798879,None,83.78157906798879,None,83.78157906798879,None,83.78157906798879,None,83.78157906798879,None,83.78157906798879,None,83.78157906798879,None,83.78157906798879,None,0.00875,-0.01,1,0,0,rectangle,0.009969138191081583,None,83.78157906798879,None,83.78157906798879,None,83.78157906798879,None,,001,2020_Oct_12_1232,Simcolourproject_2stim_asymm_v1,2020.1.2,59.90287383565077,
9,2,FF,0,11,11,11,84.2321019989904,84.4820403229678,84.2321019989904,None,84.73346997296903,None,84.73346997296903,None,84.73346997296903,None,84.73346997296903,None,84.73346997296903,None,84.73346997296903,None,84.73346997296903,None,84.73346997296903,None,0.05625,-0.1175,1,0,0,response3disk,0.01575200806837529,None,84.73346997296903,None,84.73346997296903,None,None,None,None,None,None,None,None,None,None,None,None,None,None,None,None,None,0.05625,-0.1175,1,0,0,response3disk,None,None,None,None,None,None,85.0664272760041,None,85.0664272760041,None,85.0664272760041,None,85.0664272760041,None,85.0664272760041,None,85.0664272760041,None,85.0664272760041,None,85.0664272760041,None,-0.0325,0.005,1,0,0,rectangle,0.011219861218705773,None,85.0664272760041,None,85.0664272760041,None,85.0664272760041,None,,001,2020_Oct_12_1232,Simcolourproject_2stim_asymm_v1,2020.1.2,59.90287383565077,
5,6,FF,0,12,12,12,85.43658453697572,85.69920157495653,85.43658453697572,None,85.95050061895745,None,85.95050061895745,None,85.95050061895745,None,85.95050061895745,None,85.95050061895745,None,85.95050061895745,None,85.95050061895745,None,85.95050061895745,None,-0.05375,-0.08625,1,0,0,response5disk,0.015719367074780166,None,85.95050061895745,None,85.95050061895745,None,None,None,None,None,None,None,None,None,None,None,None,None,None,None,None,None,-0.05375,-0.08625,1,0,0,response5disk,None,None,None,None,None,None,86.46661528595723,None,86.46661528595723,None,86.46661528595723,None,86.46661528595723,None,86.46661528595723,None,86.46661528595723,None,86.46661528595723,None,86.46661528595723,None,-0.0075,0.00625,1,0,0,rectangle,0.015447147190570831,None,86.46661528595723,None,86.46661528595723,None,86.46661528595723,None,,001,2020_Oct_12_1232,Simcolourproject_2stim_asymm_v1,2020.1.2,59.90287383565077,
4,2,FF,0,13,13,13,86.9007086349884,87.14961728698108,86.9007086349884,None,87.40017158695264,None,87.40017158695264,None,87.40017158695264,None,87.40017158695264,None,87.40017158695264,None,87.40017158695264,None,87.40017158695264,None,87.40017158695264,None,-0.04875,0.0925,1,0,0,response7disk,0.015446478093508631,None,87.40017158695264,None,87.40017158695264,None,None,None,None,None,None,None,None,None,None,None,None,None,None,None,None,None,-0.04875,0.09375,1,0,0,response7disk,None,None,None,None,None,None,87.81865589495283,None,87.81865589495283,None,87.81865589495283,None,87.81865589495283,None,87.81865589495283,None,87.81865589495283,None,87.81865589495283,None,87.81865589495283,None,-0.015,0.0175,1,0,0,rectangle,0.012590310245286673,None,87.81865589495283,None,87.81865589495283,None,87.81865589495283,None,,001,2020_Oct_12_1232,Simcolourproject_2stim_asymm_v1,2020.1.2,59.90287383565077,
2,2,PF,0,14,14,14,88.21958756999811,88.48399648896884,88.21958756999811,None,88.73383270396153,None,88.73383270396153,None,88.73383270396153,None,88.73383270396153,None,88.73383270396153,None,88.73383270396153,None,88.73383270396153,None,88.73383270396153,None,0.09,-0.04375,1,0,0,response3disk,0.015611736045684665,None,88.73383270396153,None,88.73383270396153,None,None,None,None,None,None,None,None,None,None,None,None,None,None,None,None,None,0.09,-0.04375,1,0,0,response3disk,None,None,None,None,None,None,89.53448131697951,None,89.53448131697951,None,89.53448131697951,None,89.53448131697951,None,89.53448131697951,None,89.53448131697951,None,89.53448131697951,None,89.53448131697951,None,-0.0175,0.00625,1,0,0,rectangle,0.015529357187915593,None,89.53448131697951,None,89.53448131697951,None,89.53448131697951,None,,001,2020_Oct_12_1232,Simcolourproject_2stim_asymm_v1,2020.1.2,59.90287383565077,
1,9,PF,0,15,15,15,89.88649466098286,90.15139207598986,89.88649466098286,None,90.40241979400162,None,90.40241979400162,None,90.40241979400162,None,90.40241979400162,None,90.40241979400162,None,90.40241979400162,None,90.40241979400162,None,90.40241979400162,None,0.04625,-0.1,1,0,0,response3disk,0.015427725098561496,None,90.40241979400162,None,90.40241979400162,None,None,None,None,None,None,None,None,None,None,None,None,None,None,None,None,None,0.04625,-0.1,1,0,0,response3disk,None,None,None,None,None,None,90.88510265899822,None,90.88510265899822,None,90.88510265899822,None,90.88510265899822,None,90.88510265899822,None,90.88510265899822,None,90.88510265899822,None,90.88510265899822,None,-0.01625,-0.01125,1,0,0,rectangle,0.015082058147527277,None,90.88510265899822,None,90.88510265899822,None,90.88510265899822,None,,001,2020_Oct_12_1232,Simcolourproject_2stim_asymm_v1,2020.1.2,59.90287383565077,
5,8,FF,0,16,16,16,91.25525146099972,91.51923076598905,91.25525146099972,None,91.77041019796161,None,91.77041019796161,None,91.77041019796161,None,91.77041019796161,None,91.77041019796161,None,91.77041019796161,None,91.77041019796161,None,91.77041019796161,None,-0.04875,-0.12375,1,0,0,response5disk,0.015570910065434873,None,91.77041019796161,None,91.77041019796161,None,None,None,None,None,None,None,None,None,None,None,None,None,None,None,None,None,-0.04875,-0.12375,1,0,0,response5disk,None,None,None,None,None,None,92.13616416300647,None,92.13616416300647,None,92.13616416300647,None,92.13616416300647,None,92.13616416300647,None,92.13616416300647,None,92.13616416300647,None,92.13616416300647,None,-0.01125,0.02625,1,0,0,rectangle,0.014571757172234356,None,92.13616416300647,None,92.13616416300647,None,92.13616416300647,None,,001,2020_Oct_12_1232,Simcolourproject_2stim_asymm_v1,2020.1.2,59.90287383565077,
9,9,FF,0,17,17,17,92.55398628796684,92.8199900809559,92.55398628796684,None,93.07044586498523,None,93.07044586498523,None,93.07044586498523,None,93.07044586498523,None,93.07044586498523,None,93.07044586498523,None,93.07044586498523,None,93.07044586498523,None,-0.09625,-0.06875,1,0,0,response5disk,0.015772707061842084,None,93.07044586498523,None,93.07044586498523,None,None,None,None,None,None,None,None,None,None,None,None,None,None,None,None,None,-0.09625,-0.06875,1,0,0,response5disk,None,None,None,None,None,None,93.65523919899715,None,93.65523919899715,None,93.65523919899715,None,93.65523919899715,None,93.65523919899715,None,93.65523919899715,None,93.65523919899715,None,93.65523919899715,None,0.02625,0.0225,1,0,0,rectangle,0.013303457177244127,None,93.65523919899715,None,93.65523919899715,None,93.65523919899715,None,,001,2020_Oct_12_1232,Simcolourproject_2stim_asymm_v1,2020.1.2,59.90287383565077,
6,7,FF,0,18,18,18,94.0566045739688,94.3200635049725,94.0566045739688,None,94.57264591997955,None,94.57264591997955,None,94.57264591997955,None,94.57264591997955,None,94.57264591997955,None,94.57264591997955,None,94.57264591997955,None,94.57264591997955,None,0.06375,-0.13375,1,0,0,response3disk,0.015596894081681967,None,94.57264591997955,None,94.57264591997955,None,None,None,None,None,None,None,None,None,None,None,None,None,None,None,None,None,0.06375,-0.13375,1,0,0,response3disk,None,None,None,None,None,None,95.07062625698745,None,95.07062625698745,None,95.07062625698745,None,95.07062625698745,None,95.07062625698745,None,95.07062625698745,None,95.07062625698745,None,95.07062625698745,None,-0.01,-0.0025,1,0,0,rectangle,0.016032051178626716,None,95.07062625698745,None,95.07062625698745,None,95.07062625698745,None,,001,2020_Oct_12_1232,Simcolourproject_2stim_asymm_v1,2020.1.2,59.90287383565077,
5,5,FF,0,19,19,19,95.42241951695178,95.68776800698834,95.42241951695178,None,95.93847312999424,None,95.93847312999424,None,95.93847312999424,None,95.93847312999424,None,95.93847312999424,None,95.93847312999424,None,95.93847312999424,None,95.93847312999424,None,0.0975,-0.06,1,0,0,response3disk,0.015369094093330204,None,95.93847312999424,None,95.93847312999424,None,None,None,None,None,None,None,None,None,None,None,None,None,None,None,None,None,0.0975,-0.06,1,0,0,response3disk,None,None,None,None,None,None,96.27052071195794,None,96.27052071195794,None,96.27052071195794,None,96.27052071195794,None,96.27052071195794,None,96.27052071195794,None,96.27052071195794,None,96.27052071195794,None,-0.02875,0.00375,1,0,0,rectangle,0.015126816171687096,None,96.27052071195794,None,96.27052071195794,None,96.27052071195794,None,,001,2020_Oct_12_1232,Simcolourproject_2stim_asymm_v1,2020.1.2,59.90287383565077,
8,1,FF,0,20,20,20,96.64014685997972,96.90506280399859,96.64014685997972,None,97.15532650396926,None,97.15532650396926,None,97.15532650396926,None,97.15532650396926,None,97.15532650396926,None,97.15532650396926,None,97.15532650396926,None,97.15532650396926,None,-0.05875,-0.1225,1,0,0,response5disk,0.015394071117043495,None,97.15532650396926,None,97.15532650396926,None,None,None,None,None,None,None,None,None,None,None,None,None,None,None,None,None,-0.05875,-0.1225,1,0,0,response5disk,None,None,None,None,None,None,97.50584593898384,None,97.50584593898384,None,97.50584593898384,None,97.50584593898384,None,97.50584593898384,None,97.50584593898384,None,97.50584593898384,None,97.50584593898384,None,-0.02625,0.01625,1,0,0,rectangle,0.013313446193933487,None,97.50584593898384,None,97.50584593898384,None,97.50584593898384,None,,001,2020_Oct_12_1232,Simcolourproject_2stim_asymm_v1,2020.1.2,59.90287383565077,
6,3,FF,0,21,21,21,97.84084056795109,98.10559544095304,97.84084056795109,None,98.35629264597083,None,98.35629264597083,None,98.35629264597083,None,98.35629264597083,None,98.35629264597083,None,98.35629264597083,None,98.35629264597083,None,98.35629264597083,None,0.03375,-0.09125,1,0,0,response3disk,0.015634660085197538,None,98.35629264597083,None,98.35629264597083,None,None,None,None,None,None,None,None,None,None,None,None,None,None,None,None,None,0.03375,-0.09125,1,0,0,response3disk,None,None,None,None,None,None,98.6894945759559,None,98.6894945759559,None,98.6894945759559,None,98.6894945759559,None,98.6894945759559,None,98.6894945759559,None,98.6894945759559,None,98.6894945759559,None,-0.015,0.0325,1,0,0,rectangle,0.014044792274944484,None,98.6894945759559,None,98.6894945759559,None,98.6894945759559,None,,001,2020_Oct_12_1232,Simcolourproject_2stim_asymm_v1,2020.1.2,59.90287383565077,
8,2,FF,0,22,22,22,99.52625096496195,99.78967568499502,99.52625096496195,None,100.03949097997975,None,100.03949097997975,None,100.03949097997975,None,100.03949097997975,None,100.03949097997975,None,100.03949097997975,None,100.03949097997975,None,100.03949097997975,None,-0.0575,0.11,1,0,0,response7disk,0.015617938071954995,None,100.03949097997975,None,100.03949097997975,None,None,None,None,None,None,None,None,None,None,None,None,None,None,None,None,None,-0.0575,0.11,1,0,0,response7disk,None,None,None,None,None,None,100.58987736696145,None,100.58987736696145,None,100.58987736696145,None,100.58987736696145,None,100.58987736696145,None,100.58987736696145,None,100.58987736696145,None,100.58987736696145,None,0.0025,0.0075,1,0,0,rectangle,0.014062816160731018,None,100.58987736696145,None,100.58987736696145,None,100.58987736696145,None,,001,2020_Oct_12_1232,Simcolourproject_2stim_asymm_v1,2020.1.2,59.90287383565077,
8,7,PF,0,23,23,23,100.9251235119882,101.19033277698327,100.9251235119882,None,101.44151626696112,None,101.44151626696112,None,101.44151626696112,None,101.44151626696112,None,101.44151626696112,None,101.44151626696112,None,101.44151626696112,None,101.44151626696112,None,-0.04,-0.11625,1,0,0,response5disk,0.015616641088854522,None,101.44151626696112,None,101.44151626696112,None,None,None,None,None,None,None,None,None,None,None,None,None,None,None,None,None,-0.04,-0.11625,1,0,0,response5disk,None,None,None,None,None,None,101.79072616295889,None,101.79072616295889,None,101.79072616295889,None,101.79072616295889,None,101.79072616295889,None,101.79072616295889,None,101.79072616295889,None,101.79072616295889,None,-0.02,0.02125,1,0,0,rectangle,0.013959303149022162,None,101.79072616295889,None,101.79072616295889,None,101.79072616295889,None,,001,2020_Oct_12_1232,Simcolourproject_2stim_asymm_v1,2020.1.2,59.90287383565077,
1,2,PF,0,24,24,24,102.09391128399875,102.35795497399522,102.09391128399875,None,102.608272537007,None,102.608272537007,None,102.608272537007,None,102.608272537007,None,102.608272537007,None,102.608272537007,None,102.608272537007,None,102.608272537007,None,-0.0975,-0.07375,1,0,0,response5disk,0.015708166174590588,None,102.608272537007,None,102.608272537007,None,None,None,None,None,None,None,None,None,None,None,None,None,None,None,None,None,-0.0975,-0.07375,1,0,0,response5disk,None,None,None,None,None,None,102.95876428397605,None,102.95876428397605,None,102.95876428397605,None,102.95876428397605,None,102.95876428397605,None,102.95876428397605,None,102.95876428397605,None,102.95876428397605,None,-0.02625,0.0125,1,0,0,rectangle,0.013959674222860485,None,102.95876428397605,None,102.95876428397605,None,102.95876428397605,None,,001,2020_Oct_12_1232,Simcolourproject_2stim_asymm_v1,2020.1.2,59.90287383565077,
5,3,FF,0,25,25,25,103.3263358589611,103.59131971397437,103.3263358589611,None,103.84187624498736,None,103.84187624498736,None,103.84187624498736,None,103.84187624498736,None,103.84187624498736,None,103.84187624498736,None,103.84187624498736,None,103.84187624498736,None,0.05,-0.1,1,0,0,response3disk,0.01562464510789141,None,103.84187624498736,None,103.84187624498736,None,None,None,None,None,None,None,None,None,None,None,None,None,None,None,None,None,0.05,-0.1,1,0,0,response3disk,None,None,None,None,None,None,104.12469562899787,None,104.12469562899787,None,104.12469562899787,None,104.12469562899787,None,104.12469562899787,None,104.12469562899787,None,104.12469562899787,None,104.12469562899787,None,0.0175,-0.0175,1,0,0,rectangle,0.01581487519433722,None,104.12469562899787,None,104.12469562899787,None,104.12469562899787,None,,001,2020_Oct_12_1232,Simcolourproject_2stim_asymm_v1,2020.1.2,59.90287383565077,
6,3,PF,0,26,26,26,104.4941791909514,104.75888517097337,104.4941791909514,None,105.0105785880005,None,105.0105785880005,None,105.0105785880005,None,105.0105785880005,None,105.0105785880005,None,105.0105785880005,None,105.0105785880005,None,105.0105785880005,None,0.11875,0.04375,1,0,0,response1disk,0.01581052312394604,None,105.0105785880005,None,105.0105785880005,None,None,None,None,None,None,None,None,None,None,None,None,None,None,None,None,None,0.11875,0.04375,1,0,0,response1disk,None,None,None,None,None,None,105.49261162796756,None,105.49261162796756,None,105.49261162796756,None,105.49261162796756,None,105.49261162796756,None,105.49261162796756,None,105.49261162796756,None,105.49261162796756,None,0.03875,-0.01625,1,0,0,rectangle,0.014442460204008967,None,105.49261162796756,None,105.49261162796756,None,105.49261162796756,None,,001,2020_Oct_12_1232,Simcolourproject_2stim_asymm_v1,2020.1.2,59.90287383565077,
1,8,FF,0,27,27,27,105.89412160997745,106.15918723499635,105.89412160997745,None,106.40975188999437,None,106.40975188999437,None,106.40975188999437,None,106.40975188999437,None,106.40975188999437,None,106.40975188999437,None,106.40975188999437,None,106.40975188999437,None,0.12,-0.0825,1,0,0,response3disk,0.015811715100426227,None,106.40975188999437,None,106.40975188999437,None,None,None,None,None,None,None,None,None,None,None,None,None,None,None,None,None,0.12,-0.0825,1,0,0,response3disk,None,None,None,None,None,None,106.92617032997077,None,106.92617032997077,None,106.92617032997077,None,106.92617032997077,None,106.92617032997077,None,106.92617032997077,None,106.92617032997077,None,106.92617032997077,None,0.01125,-0.01375,1,0,0,rectangle,0.014969538256991655,None,106.92617032997077,None,106.92617032997077,None,106.92617032997077,None,,001,2020_Oct_12_1232,Simcolourproject_2stim_asymm_v1,2020.1.2,59.90287383565077,
1,5,PF,0,28,28,28,107.278209054959,107.5436516799964,107.278209054959,None,107.79497674497543,None,107.79497674497543,None,107.79497674497543,None,107.79497674497543,None,107.79497674497543,None,107.79497674497543,None,107.79497674497543,None,107.79497674497543,None,0.065,-0.12,1,0,0,response3disk,0.015620950027368963,None,107.79497674497543,None,107.79497674497543,None,None,None,None,None,None,None,None,None,None,None,None,None,None,None,None,None,0.065,-0.12,1,0,0,response3disk,None,None,None,None,None,None,108.09320076898439,None,108.09320076898439,None,108.09320076898439,None,108.09320076898439,None,108.09320076898439,None,108.09320076898439,None,108.09320076898439,None,108.09320076898439,None,-0.01625,-0.015,1,0,0,rectangle,0.01414393523009494,None,108.09320076898439,None,108.09320076898439,None,108.09320076898439,None,,001,2020_Oct_12_1232,Simcolourproject_2stim_asymm_v1,2020.1.2,59.90287383565077,
7,6,PF,0,29,29,29,108.42900883196853,108.694795821968,108.42900883196853,None,108.94757004996063,None,108.94757004996063,None,108.94757004996063,None,108.94757004996063,None,108.94757004996063,None,108.94757004996063,None,108.94757004996063,None,108.94757004996063,None,0.05125,-0.10875,1,0,0,response3disk,0.015085523133166134,None,108.94757004996063,None,108.94757004996063,None,None,None,None,None,None,None,None,None,None,None,None,None,None,None,None,None,0.05125,-0.10875,1,0,0,response3disk,None,None,None,None,None,None,109.24467128195101,None,109.24467128195101,None,109.24467128195101,None,109.24467128195101,None,109.24467128195101,None,109.24467128195101,None,109.24467128195101,None,109.24467128195101,None,-0.0125,0.01375,1,0,0,rectangle,0.015962653153110296,None,109.24467128195101,None,109.24467128195101,None,109.24467128195101,None,,001,2020_Oct_12_1232,Simcolourproject_2stim_asymm_v1,2020.1.2,59.90287383565077,
3,4,PF,0,30,30,30,109.59657127200626,109.86118160397746,109.59657127200626,None,110.1108797689667,None,110.1108797689667,None,110.1108797689667,None,110.1108797689667,None,110.1108797689667,None,110.1108797689667,None,110.1108797689667,None,110.1108797689667,None,0.10375,-0.0475,1,0,0,response3disk,0.01581618911586702,None,110.1108797689667,None,110.1108797689667,None,None,None,None,None,None,None,None,None,None,None,None,None,None,None,None,None,0.10375,-0.0475,1,0,0,response3disk,None,None,None,None,None,None,110.39370456896722,None,110.39370456896722,None,110.39370456896722,None,110.39370456896722,None,110.39370456896722,None,110.39370456896722,None,110.39370456896722,None,110.39370456896722,None,-0.015,0.01,1,0,0,rectangle,0.014818156138062477,None,110.39370456896722,None,110.39370456896722,None,110.39370456896722,None,,001,2020_Oct_12_1232,Simcolourproject_2stim_asymm_v1,2020.1.2,59.90287383565077,
7,6,FF,0,31,31,31,110.679544108978,110.94529225095175,110.679544108978,None,111.19521093094954,None,111.19521093094954,None,111.19521093094954,None,111.19521093094954,None,111.19521093094954,None,111.19521093094954,None,111.19521093094954,None,111.19521093094954,None,0.1,0.0625,1,0,0,response1disk,0.015187763085123152,None,111.19521093094954,None,111.19521093094954,None,None,None,None,None,None,None,None,None,None,None,None,None,None,None,None,None,0.1,0.0625,1,0,0,response1disk,None,None,None,None,None,None,111.47829597297823,None,111.47829597297823,None,111.47829597297823,None,111.47829597297823,None,111.47829597297823,None,111.47829597297823,None,111.47829597297823,None,111.47829597297823,None,0.01625,0.0125,1,0,0,rectangle,0.015211797202937305,None,111.47829597297823,None,111.47829597297823,None,111.47829597297823,None,,001,2020_Oct_12_1232,Simcolourproject_2stim_asymm_v1,2020.1.2,59.90287383565077,
7,2,PF,0,32,32,32,111.81424356100615,112.07875837298343,111.81424356100615,None,112.33060199196916,None,112.33060199196916,None,112.33060199196916,None,112.33060199196916,None,112.33060199196916,None,112.33060199196916,None,112.33060199196916,None,112.33060199196916,None,0.0925,-0.0575,1,0,0,response3disk,0.01561394811142236,None,112.33060199196916,None,112.33060199196916,None,None,None,None,None,None,None,None,None,None,None,None,None,None,None,None,None,0.0925,-0.0575,1,0,0,response3disk,None,None,None,None,None,None,112.6133549399674,None,112.6133549399674,None,112.6133549399674,None,112.6133549399674,None,112.6133549399674,None,112.6133549399674,None,112.6133549399674,None,112.6133549399674,None,-0.01,-0.00125,1,0,0,rectangle,0.013517852232325822,None,112.6133549399674,None,112.6133549399674,None,112.6133549399674,None,,001,2020_Oct_12_1232,Simcolourproject_2stim_asymm_v1,2020.1.2,59.90287383565077,
6,4,PF,0,33,33,33,112.98050947498996,113.22906705795322,112.98050947498996,None,113.48003743798472,None,113.48003743798472,None,113.48003743798472,None,113.48003743798472,None,113.48003743798472,None,113.48003743798472,None,113.48003743798472,None,113.48003743798472,None,0.08625,0.05375,1,0,0,response1disk,0.015490518184378743,None,113.48003743798472,None,113.48003743798472,None,None,None,None,None,None,None,None,None,None,None,None,None,None,None,None,None,0.08625,0.05375,1,0,0,response1disk,None,None,None,None,None,None,113.79608949797694,None,113.79608949797694,None,113.79608949797694,None,113.79608949797694,None,113.79608949797694,None,113.79608949797694,None,113.79608949797694,None,113.79608949797694,None,-0.0075,0.0175,1,0,0,rectangle,0.014375534257851541,None,113.79608949797694,None,113.79608949797694,None,113.79608949797694,None,,001,2020_Oct_12_1232,Simcolourproject_2stim_asymm_v1,2020.1.2,59.90287383565077,
7,7,FF,0,34,34,34,114.16457078995882,114.4296874749707,114.16457078995882,None,114.68033154000295,None,114.68033154000295,None,114.68033154000295,None,114.68033154000295,None,114.68033154000295,None,114.68033154000295,None,114.68033154000295,None,114.68033154000295,None,0.07375,-0.04625,1,0,0,response3disk,0.01562825811561197,None,114.68033154000295,None,114.68033154000295,None,None,None,None,None,None,None,None,None,None,None,None,None,None,None,None,None,0.07375,-0.04625,1,0,0,response3disk,None,None,None,None,None,None,114.96353680995526,None,114.96353680995526,None,114.96353680995526,None,114.96353680995526,None,114.96353680995526,None,114.96353680995526,None,114.96353680995526,None,114.96353680995526,None,-0.00625,-0.00125,1,0,0,rectangle,0.014109346200712025,None,114.96353680995526,None,114.96353680995526,None,114.96353680995526,None,,001,2020_Oct_12_1232,Simcolourproject_2stim_asymm_v1,2020.1.2,59.90287383565077,
4,8,FF,0,35,35,35,115.31602565199137,115.58043870195979,115.31602565199137,None,115.83028811897384,None,115.83028811897384,None,115.83028811897384,None,115.83028811897384,None,115.83028811897384,None,115.83028811897384,None,115.83028811897384,None,115.83028811897384,None,0.0375,-0.11625,1,0,0,response3disk,0.015622728096786886,None,115.83028811897384,None,115.83028811897384,None,None,None,None,None,None,None,None,None,None,None,None,None,None,None,None,None,0.0375,-0.11625,1,0,0,response3disk,None,None,None,None,None,None,116.13059207896003,None,116.13059207896003,None,116.13059207896003,None,116.13059207896003,None,116.13059207896003,None,116.13059207896003,None,116.13059207896003,None,116.13059207896003,None,-0.0175,-0.02125,1,0,0,rectangle,0.014857882226351649,None,116.13059207896003,None,116.13059207896003,None,116.13059207896003,None,,001,2020_Oct_12_1232,Simcolourproject_2stim_asymm_v1,2020.1.2,59.90287383565077,
3,2,PF,0,36,36,36,116.49886995897396,116.74754879099783,116.49886995897396,None,116.99810756900115,None,116.99810756900115,None,116.99810756900115,None,116.99810756900115,None,116.99810756900115,None,116.99810756900115,None,116.99810756900115,None,116.99810756900115,None,0.08625,-0.07,1,0,0,response3disk,0.015468305093236268,None,116.99810756900115,None,116.99810756900115,None,None,None,None,None,None,None,None,None,None,None,None,None,None,None,None,None,0.08625,-0.07,1,0,0,response3disk,None,None,None,None,None,None,117.348148080986,None,117.348148080986,None,117.348148080986,None,117.348148080986,None,117.348148080986,None,117.348148080986,None,117.348148080986,None,117.348148080986,None,-0.02375,-0.0125,1,0,0,rectangle,0.014122345193754882,None,117.348148080986,None,117.348148080986,None,117.348148080986,None,,001,2020_Oct_12_1232,Simcolourproject_2stim_asymm_v1,2020.1.2,59.90287383565077,
8,6,FF,0,37,37,37,117.68423825898208,117.94844395795371,117.68423825898208,None,118.19913981499849,None,118.19913981499849,None,118.19913981499849,None,118.19913981499849,None,118.19913981499849,None,118.19913981499849,None,118.19913981499849,None,118.19913981499849,None,0.07625,0.0525,1,0,0,response1disk,0.015619887155480683,None,118.19913981499849,None,118.19913981499849,None,None,None,None,None,None,None,None,None,None,None,None,None,None,None,None,None,0.07625,0.0525,1,0,0,response1disk,None,None,None,None,None,None,118.51679325295845,None,118.51679325295845,None,118.51679325295845,None,118.51679325295845,None,118.51679325295845,None,118.51679325295845,None,118.51679325295845,None,118.51679325295845,None,-0.0175,0.0075,1,0,0,rectangle,0.012181335187051445,None,118.51679325295845,None,118.51679325295845,None,118.51679325295845,None,,001,2020_Oct_12_1232,Simcolourproject_2stim_asymm_v1,2020.1.2,59.90287383565077,
4,7,PF,0,38,38,38,118.85123011498945,119.11558894597692,118.85123011498945,None,119.36525806499412,None,119.36525806499412,None,119.36525806499412,None,119.36525806499412,None,119.36525806499412,None,119.36525806499412,None,119.36525806499412,None,119.36525806499412,None,0.04875,0.1125,1,0,0,response1disk,0.01579301111632958,None,119.36525806499412,None,119.36525806499412,None,None,None,None,None,None,None,None,None,None,None,None,None,None,None,None,None,0.04875,0.1125,1,0,0,response1disk,None,None,None,None,None,None,119.66973608796252,None,119.66973608796252,None,119.66973608796252,None,119.66973608796252,None,119.66973608796252,None,119.66973608796252,None,119.66973608796252,None,119.66973608796252,None,-0.0125,0.01875,1,0,0,rectangle,0.011449616227764636,None,119.66973608796252,None,119.66973608796252,None,119.66973608796252,None,,001,2020_Oct_12_1232,Simcolourproject_2stim_asymm_v1,2020.1.2,59.90287383565077,
2,9,PF,0,39,39,39,120.05345058796229,120.31640379800228,120.05345058796229,None,120.56632533698576,None,120.56632533698576,None,120.56632533698576,None,120.56632533698576,None,120.56632533698576,None,120.56632533698576,None,120.56632533698576,None,120.56632533698576,None,-0.0525,0.0875,1,0,0,response7disk,0.015802724054083228,None,120.56632533698576,None,120.56632533698576,None,None,None,None,None,None,None,None,None,None,None,None,None,None,None,None,None,-0.0525,0.0875,1,0,0,response7disk,None,None,None,None,None,None,121.06685914698755,None,121.06685914698755,None,121.06685914698755,None,121.06685914698755,None,121.06685914698755,None,121.06685914698755,None,121.06685914698755,None,121.06685914698755,None,0.0075,-0.02875,1,0,0,rectangle,0.014199033204931766,None,121.06685914698755,None,121.06685914698755,None,121.06685914698755,None,,001,2020_Oct_12_1232,Simcolourproject_2stim_asymm_v1,2020.1.2,59.90287383565077,
2,6,FF,0,40,40,40,121.38504361000378,121.64902298996458,121.38504361000378,None,121.90044010896236,None,121.90044010896236,None,121.90044010896236,None,121.90044010896236,None,121.90044010896236,None,121.90044010896236,None,121.90044010896236,None,121.90044010896236,None,-0.02875,-0.13875,1,0,0,response5disk,0.015488518110942096,None,121.90044010896236,None,121.90044010896236,None,None,None,None,None,None,None,None,None,None,None,None,None,None,None,None,None,-0.02875,-0.13875,1,0,0,response5disk,None,None,None,None,None,None,122.43330500699813,None,122.43330500699813,None,122.43330500699813,None,122.43330500699813,None,122.43330500699813,None,122.43330500699813,None,122.43330500699813,None,122.43330500699813,None,0.0025,0.0075,1,0,0,rectangle,0.014114959223661572,None,122.43330500699813,None,122.43330500699813,None,122.43330500699813,None,,001,2020_Oct_12_1232,Simcolourproject_2stim_asymm_v1,2020.1.2,59.90287383565077,
3,7,PF,0,41,41,41,122.8364254689659,123.10094215499703,122.8364254689659,None,123.35114454099676,None,123.35114454099676,None,123.35114454099676,None,123.35114454099676,None,123.35114454099676,None,123.35114454099676,None,123.35114454099676,None,123.35114454099676,None,-0.11,-0.065,1,0,0,response5disk,0.015607268083840609,None,123.35114454099676,None,123.35114454099676,None,None,None,None,None,None,None,None,None,None,None,None,None,None,None,None,None,-0.11,-0.065,1,0,0,response5disk,None,None,None,None,None,None,123.66843544895528,None,123.66843544895528,None,123.66843544895528,None,123.66843544895528,None,123.66843544895528,None,123.66843544895528,None,123.66843544895528,None,123.66843544895528,None,0.02375,0.0125,1,0,0,rectangle,0.012942267174366862,None,123.66843544895528,None,123.66843544895528,None,123.66843544895528,None,,001,2020_Oct_12_1232,Simcolourproject_2stim_asymm_v1,2020.1.2,59.90287383565077,
8,9,PF,0,42,42,42,124.00300525600323,124.26750286394963,124.00300525600323,None,124.51870179898106,None,124.51870179898106,None,124.51870179898106,None,124.51870179898106,None,124.51870179898106,None,124.51870179898106,None,124.51870179898106,None,124.51870179898106,None,0.065,-0.12375,1,0,0,response3disk,0.015596041164826602,None,124.51870179898106,None,124.51870179898106,None,None,None,None,None,None,None,None,None,None,None,None,None,None,None,None,None,0.065,-0.12375,1,0,0,response3disk,None,None,None,None,None,None,124.85098809597548,None,124.85098809597548,None,124.85098809597548,None,124.85098809597548,None,124.85098809597548,None,124.85098809597548,None,124.85098809597548,None,124.85098809597548,None,-0.01625,-0.0125,1,0,0,rectangle,0.014356235216837376,None,124.85098809597548,None,124.85098809597548,None,124.85098809597548,None,,001,2020_Oct_12_1232,Simcolourproject_2stim_asymm_v1,2020.1.2,59.90287383565077,
7,4,PF,0,43,43,43,125.18719498295104,125.45185540698003,125.18719498295104,None,125.70292005699594,None,125.70292005699594,None,125.70292005699594,None,125.70292005699594,None,125.70292005699594,None,125.70292005699594,None,125.70292005699594,None,125.70292005699594,None,0.10625,0.02625,1,0,0,response1disk,0.01563018310116604,None,125.70292005699594,None,125.70292005699594,None,None,None,None,None,None,None,None,None,None,None,None,None,None,None,None,None,0.10625,0.02625,1,0,0,response1disk,None,None,None,None,None,None,126.11971609998727,None,126.11971609998727,None,126.11971609998727,None,126.11971609998727,None,126.11971609998727,None,126.11971609998727,None,126.11971609998727,None,126.11971609998727,None,-0.0025,-0.0175,1,0,0,rectangle,0.013020731217693537,None,126.11971609998727,None,126.11971609998727,None,126.11971609998727,None,,001,2020_Oct_12_1232,Simcolourproject_2stim_asymm_v1,2020.1.2,59.90287383565077,
3,8,FF,0,44,44,44,126.50429878797149,126.76973116298905,126.50429878797149,None,127.01902331999736,None,127.01902331999736,None,127.01902331999736,None,127.01902331999736,None,127.01902331999736,None,127.01902331999736,None,127.01902331999736,None,127.01902331999736,None,0.07625,-0.0625,1,0,0,response3disk,0.015212431142572314,None,127.01902331999736,None,127.01902331999736,None,None,None,None,None,None,None,None,None,None,None,None,None,None,None,None,None,0.07625,-0.0625,1,0,0,response3disk,None,None,None,None,None,None,127.30277803196805,None,127.30277803196805,None,127.30277803196805,None,127.30277803196805,None,127.30277803196805,None,127.30277803196805,None,127.30277803196805,None,127.30277803196805,None,-0.015,-0.0075,1,0,0,rectangle,0.0004676560638472438,None,127.30277803196805,None,127.30277803196805,None,127.30277803196805,None,,001,2020_Oct_12_1232,Simcolourproject_2stim_asymm_v1,2020.1.2,59.90287383565077,
6,9,PF,0,45,45,45,128.05464630696224,128.3198846669984,128.05464630696224,None,128.5719681479968,None,128.5719681479968,None,128.5719681479968,None,128.5719681479968,None,128.5719681479968,None,128.5719681479968,None,128.5719681479968,None,128.5719681479968,None,0.03875,-0.10375,1,0,0,response3disk,0.015126238111406565,None,128.5719681479968,None,128.5719681479968,None,None,None,None,None,None,None,None,None,None,None,None,None,None,None,None,None,0.03875,-0.10375,1,0,0,response3disk,None,None,None,None,None,None,128.90515845699701,None,128.90515845699701,None,128.90515845699701,None,128.90515845699701,None,128.90515845699701,None,128.90515845699701,None,128.90515845699701,None,128.90515845699701,None,0.005,-0.0125,1,0,0,rectangle,0.013881277234759182,None,128.90515845699701,None,128.90515845699701,None,128.90515845699701,None,,001,2020_Oct_12_1232,Simcolourproject_2stim_asymm_v1,2020.1.2,59.90287383565077,
6,1,PF,0,46,46,46,129.2562949489802,129.52068484399933,129.2562949489802,None,129.77092590398388,None,129.77092590398388,None,129.77092590398388,None,129.77092590398388,None,129.77092590398388,None,129.77092590398388,None,129.77092590398388,None,129.77092590398388,None,-0.0325,-0.09125,1,0,0,response5disk,0.015358840115368366,None,129.77092590398388,None,129.77092590398388,None,None,None,None,None,None,None,None,None,None,None,None,None,None,None,None,None,-0.0325,-0.09125,1,0,0,response5disk,None,None,None,None,None,None,130.1379826059565,None,130.1379826059565,None,130.1379826059565,None,130.1379826059565,None,130.1379826059565,None,130.1379826059565,None,130.1379826059565,None,130.1379826059565,None,-0.01375,0.0,1,0,0,rectangle,0.014151843206491321,None,130.1379826059565,None,130.1379826059565,None,130.1379826059565,None,,001,2020_Oct_12_1232,Simcolourproject_2stim_asymm_v1,2020.1.2,59.90287383565077,
3,6,PF,0,47,47,47,130.5567245009588,130.82053118100157,130.5567245009588,None,131.071229838999,None,131.071229838999,None,131.071229838999,None,131.071229838999,None,131.071229838999,None,131.071229838999,None,131.071229838999,None,131.071229838999,None,-0.1125,-0.07375,1,0,0,response5disk,0.015601416060235351,None,131.071229838999,None,131.071229838999,None,None,None,None,None,None,None,None,None,None,None,None,None,None,None,None,None,-0.1125,-0.07375,1,0,0,response5disk,None,None,None,None,None,None,131.45445269800257,None,131.45445269800257,None,131.45445269800257,None,131.45445269800257,None,131.45445269800257,None,131.45445269800257,None,131.45445269800257,None,131.45445269800257,None,-0.0275,0.03625,1,0,0,rectangle,0.0004452571156434715,None,131.45445269800257,None,131.45445269800257,None,131.45445269800257,None,,001,2020_Oct_12_1232,Simcolourproject_2stim_asymm_v1,2020.1.2,59.90287383565077,
8,8,FF,0,48,48,48,131.75749678799184,132.0208339059609,131.75749678799184,None,132.27194960298948,None,132.27194960298948,None,132.27194960298948,None,132.27194960298948,None,132.27194960298948,None,132.27194960298948,None,132.27194960298948,None,132.27194960298948,None,-0.065,0.09,1,0,0,response7disk,0.015616628166753799,None,132.27194960298948,None,132.27194960298948,None,None,None,None,None,None,None,None,None,None,None,None,None,None,None,None,None,-0.065,0.09,1,0,0,response7disk,None,None,None,None,None,None,132.62152198096737,None,132.62152198096737,None,132.62152198096737,None,132.62152198096737,None,132.62152198096737,None,132.62152198096737,None,132.62152198096737,None,132.62152198096737,None,-0.0025,-0.01375,1,0,0,rectangle,0.0024027980980463326,None,132.62152198096737,None,132.62152198096737,None,132.62152198096737,None,,001,2020_Oct_12_1232,Simcolourproject_2stim_asymm_v1,2020.1.2,59.90287383565077,
4,5,PF,0,49,49,49,132.95770869997796,133.22228369000368,132.95770869997796,None,133.47375597298378,None,133.47375597298378,None,133.47375597298378,None,133.47375597298378,None,133.47375597298378,None,133.47375597298378,None,133.47375597298378,None,133.47375597298378,None,0.03875,-0.12,1,0,0,response3disk,0.015588440059218556,None,133.47375597298378,None,133.47375597298378,None,None,None,None,None,None,None,None,None,None,None,None,None,None,None,None,None,0.03875,-0.12,1,0,0,response3disk,None,None,None,None,None,None,133.7400980599923,None,133.7400980599923,None,133.7400980599923,None,133.7400980599923,None,133.7400980599923,None,133.7400980599923,None,133.7400980599923,None,133.7400980599923,None,-0.0075,-0.025,1,0,0,rectangle,0.014084900147281587,None,133.7400980599923,None,133.7400980599923,None,133.7400980599923,None,,001,2020_Oct_12_1232,Simcolourproject_2stim_asymm_v1,2020.1.2,59.90287383565077,
,,,,,,,134.1056868819869,134.3560547369998,134.1056868819869,None,,,,,,,,,,,,,,,,,,,,,,,,,,,,,,,,,,,,,,,,,,,,,,,,,,,,,,,,,,,,,,,,,,,,,,,,,,,,,,,,,,,,,,,,,,,,,
