Colour_1,Colour_2,Ecc,trials.thisRepN,trials.thisTrialN,trials.thisN,trials.thisIndex,Circle_1.started,Circle_1.stopped,centre_cross4.started,centre_cross4.stopped,response1disk.started,response1disk.stopped,response2disk.started,response2disk.stopped,response3disk.started,response3disk.stopped,response4disk.started,response4disk.stopped,response5disk.started,response5disk.stopped,response6disk.started,response6disk.stopped,response7disk.started,response7disk.stopped,response8disk.started,response8disk.stopped,mouse.x,mouse.y,mouse.leftButton,mouse.midButton,mouse.rightButton,mouse.clicked_name,mouse.started,mouse.stopped,Circle_2.started,Circle_2.stopped,text_23.started,text_23.stopped,response1disk_3.started,response1disk_3.stopped,response2disk_3.started,response2disk_3.stopped,response3disk_3.started,response3disk_3.stopped,response4disk_3.started,response4disk_3.stopped,response5disk_3.started,response5disk_3.stopped,response6disk_3.started,response6disk_3.stopped,response7disk_3.started,response7disk_3.stopped,response8disk_3.started,response8disk_3.stopped,mouse_3.x,mouse_3.y,mouse_3.leftButton,mouse_3.midButton,mouse_3.rightButton,mouse_3.clicked_name,mouse_3.started,mouse_3.stopped,text_26.started,text_26.stopped,rectangle_2.started,rectangle_2.stopped,response1disk_2.started,response1disk_2.stopped,response2disk_2.started,response2disk_2.stopped,response3disk_2.started,response3disk_2.stopped,response4disk_2.started,response4disk_2.stopped,response5disk_2.started,response5disk_2.stopped,response6disk_2.started,response6disk_2.stopped,response7disk_2.started,response7disk_2.stopped,response8disk_2.started,response8disk_2.stopped,mouse_2.x,mouse_2.y,mouse_2.leftButton,mouse_2.midButton,mouse_2.rightButton,mouse_2.clicked_name,mouse_2.started,mouse_2.stopped,rectangle.started,rectangle.stopped,text_25.started,text_25.stopped,text_24.started,text_24.stopped,participant,session,date,expName,psychopyVersion,frameRate,
6,6,PF,0,0,0,0,68.35088678600732,68.61317654699087,68.35088678600732,None,68.84567546000471,None,68.84567546000471,None,68.84567546000471,None,68.84567546000471,None,68.84567546000471,None,68.84567546000471,None,68.84567546000471,None,68.84567546000471,None,-0.05875,-0.10375,1,0,0,response5disk,0.015223044902086258,None,68.84567546000471,None,68.84567546000471,None,79.63691814179765,None,79.63691814179765,None,79.63691814179765,None,79.63691814179765,None,79.63691814179765,None,79.63691814179765,None,79.63691814179765,None,79.63691814179765,None,-0.05875,-0.10375,1,0,0,response5disk,0.00881730776745826,None,79.63691814179765,None,79.63691814179765,None,79.67032685602317,None,79.67032685602317,None,79.67032685602317,None,79.67032685602317,None,79.67032685602317,None,79.67032685602317,None,79.67032685602317,None,79.67032685602317,None,-0.0175,0.0025,1,0,0,rectangle,0.0014179457211866975,None,79.67032685602317,None,79.67032685602317,None,79.67032685602317,None,,001,2020_Oct_12_1220,Simcolourproject_2stim_asymm_v1,2020.1.2,59.92106658474667,
1,3,PF,0,1,1,1,80.28544871899066,80.53499565500533,80.28544871899066,None,80.78550541901495,None,80.78550541901495,None,80.78550541901495,None,80.78550541901495,None,80.78550541901495,None,80.78550541901495,None,80.78550541901495,None,80.78550541901495,None,0.12375,-0.06375,1,0,0,response3disk,0.0156937938882038,None,80.78550541901495,None,80.78550541901495,None,81.4548147788737,None,81.4548147788737,None,81.4548147788737,None,81.4548147788737,None,81.4548147788737,None,81.4548147788737,None,81.4548147788737,None,81.4548147788737,None,0.12375,-0.06375,1,0,0,response3disk,0.0015233529265969992,None,81.4548147788737,None,81.4548147788737,None,81.48493440001039,None,81.48493440001039,None,81.48493440001039,None,81.48493440001039,None,81.48493440001039,None,81.48493440001039,None,81.48493440001039,None,81.48493440001039,None,0.01125,-0.0225,1,0,0,rectangle,0.008861864800564945,None,81.48493440001039,None,81.48493440001039,None,81.48493440001039,None,,001,2020_Oct_12_1220,Simcolourproject_2stim_asymm_v1,2020.1.2,59.92106658474667,
1,2,FF,0,2,2,2,81.95265557098901,82.20372101600515,81.95265557098901,None,82.45546110998839,None,82.45546110998839,None,82.45546110998839,None,82.45546110998839,None,82.45546110998839,None,82.45546110998839,None,82.45546110998839,None,82.45546110998839,None,-0.0275,0.05875,1,0,0,response7disk,0.01554974785540253,None,82.45546110998839,None,82.45546110998839,None,82.95339847489959,None,82.95339847489959,None,82.95339847489959,None,82.95339847489959,None,82.95339847489959,None,82.95339847489959,None,82.95339847489959,None,82.95339847489959,None,-0.0275,0.05875,1,0,0,response7disk,0.005643333890475333,None,82.95339847489959,None,82.95339847489959,None,82.98624587699305,None,82.98624587699305,None,82.98624587699305,None,82.98624587699305,None,82.98624587699305,None,82.98624587699305,None,82.98624587699305,None,82.98624587699305,None,0.0025,-0.01125,1,0,0,rectangle,0.011731636826880276,None,82.98624587699305,None,82.98624587699305,None,82.98624587699305,None,,001,2020_Oct_12_1220,Simcolourproject_2stim_asymm_v1,2020.1.2,59.92106658474667,
3,8,PF,0,3,3,3,83.4197256959742,83.67058600898599,83.4197256959742,None,83.92157816397958,None,83.92157816397958,None,83.92157816397958,None,83.92157816397958,None,83.92157816397958,None,83.92157816397958,None,83.92157816397958,None,83.92157816397958,None,0.06125,-0.12375,1,0,0,response3disk,0.01540694385766983,None,83.92157816397958,None,83.92157816397958,None,84.52057378791505,None,84.52057378791505,None,84.52057378791505,None,84.52057378791505,None,84.52057378791505,None,84.52057378791505,None,84.52057378791505,None,84.52057378791505,None,0.06125,-0.12375,1,0,0,response3disk,0.004398830933496356,None,84.52057378791505,None,84.52057378791505,None,84.55298297898844,None,84.55298297898844,None,84.55298297898844,None,84.55298297898844,None,84.55298297898844,None,84.55298297898844,None,84.55298297898844,None,84.55298297898844,None,0.01375,-0.01625,1,0,0,rectangle,0.010748760774731636,None,84.55298297898844,None,84.55298297898844,None,84.55298297898844,None,,001,2020_Oct_12_1220,Simcolourproject_2stim_asymm_v1,2020.1.2,59.92106658474667,
3,3,PF,0,4,4,4,84.95716246898519,85.22020720498404,84.95716246898519,None,85.47122602700256,None,85.47122602700256,None,85.47122602700256,None,85.47122602700256,None,85.47122602700256,None,85.47122602700256,None,85.47122602700256,None,85.47122602700256,None,-0.0475,-0.08375,1,0,0,response5disk,0.01577863685088232,None,85.47122602700256,None,85.47122602700256,None,86.12160115886945,None,86.12160115886945,None,86.12160115886945,None,86.12160115886945,None,86.12160115886945,None,86.12160115886945,None,86.12160115886945,None,86.12160115886945,None,-0.0475,-0.08375,1,0,0,response5disk,0.004217624838929623,None,86.12160115886945,None,86.12160115886945,None,86.15417583996896,None,86.15417583996896,None,86.15417583996896,None,86.15417583996896,None,86.15417583996896,None,86.15417583996896,None,86.15417583996896,None,86.15417583996896,None,-0.00375,0.0,1,0,0,rectangle,0.010816383815836161,None,86.15417583996896,None,86.15417583996896,None,86.15417583996896,None,,001,2020_Oct_12_1220,Simcolourproject_2stim_asymm_v1,2020.1.2,59.92106658474667,
6,1,FF,0,5,5,5,86.52068579697516,86.77102678798838,86.52068579697516,None,87.02333454799373,None,87.02333454799373,None,87.02333454799373,None,87.02333454799373,None,87.02333454799373,None,87.02333454799373,None,87.02333454799373,None,87.02333454799373,None,0.045,-0.0775,1,0,0,response3disk,0.015476388856768608,None,87.02333454799373,None,87.02333454799373,None,87.65651100978721,None,87.65651100978721,None,87.65651100978721,None,87.65651100978721,None,87.65651100978721,None,87.65651100978721,None,87.65651100978721,None,87.65651100978721,None,0.045,-0.0775,1,0,0,response3disk,0.012711961753666401,None,87.65651100978721,None,87.65651100978721,None,87.67202517297119,None,87.67202517297119,None,87.67202517297119,None,87.67202517297119,None,87.67202517297119,None,87.67202517297119,None,87.67202517297119,None,87.67202517297119,None,0.02375,-0.0175,1,0,0,rectangle,0.0007692317594774067,None,87.67202517297119,None,87.67202517297119,None,87.67202517297119,None,,001,2020_Oct_12_1220,Simcolourproject_2stim_asymm_v1,2020.1.2,59.92106658474667,
9,8,FF,0,6,6,6,88.37153277097968,88.62240855500568,88.37153277097968,None,88.87239747901913,None,88.87239747901913,None,88.87239747901913,None,88.87239747901913,None,88.87239747901913,None,88.87239747901913,None,88.87239747901913,None,88.87239747901913,None,0.0425,-0.08,1,0,0,response3disk,0.015713844913989305,None,88.87239747901913,None,88.87239747901913,None,89.35544824588578,None,89.35544824588578,None,89.35544824588578,None,89.35544824588578,None,89.35544824588578,None,89.35544824588578,None,89.35544824588578,None,89.35544824588578,None,0.0425,-0.08,1,0,0,response3disk,0.010003954928833991,None,89.35544824588578,None,89.35544824588578,None,89.37245971697848,None,89.37245971697848,None,89.37245971697848,None,89.37245971697848,None,89.37245971697848,None,89.37245971697848,None,89.37245971697848,None,89.37245971697848,None,0.00875,0.00125,1,0,0,rectangle,0.0008088299073278904,None,89.37245971697848,None,89.37245971697848,None,89.37245971697848,None,,001,2020_Oct_12_1220,Simcolourproject_2stim_asymm_v1,2020.1.2,59.92106658474667,
5,7,FF,0,7,7,7,89.72367734496947,89.98930016398663,89.72367734496947,None,90.23962889198447,None,90.23962889198447,None,90.23962889198447,None,90.23962889198447,None,90.23962889198447,None,90.23962889198447,None,90.23962889198447,None,90.23962889198447,None,0.07875,0.02875,1,0,0,response1disk,0.015616036835126579,None,90.23962889198447,None,90.23962889198447,None,90.69022800587118,None,90.69022800587118,None,90.69022800587118,None,90.69022800587118,None,90.69022800587118,None,90.69022800587118,None,90.69022800587118,None,90.69022800587118,None,0.07875,0.02875,1,0,0,response1disk,0.004958054865710437,None,90.69022800587118,None,90.69022800587118,None,90.70827625697711,None,90.70827625697711,None,90.70827625697711,None,90.70827625697711,None,90.70827625697711,None,90.70827625697711,None,90.70827625697711,None,90.70827625697711,None,0.00125,0.00375,1,0,0,rectangle,0.012571646715514362,None,90.70827625697711,None,90.70827625697711,None,90.70827625697711,None,,001,2020_Oct_12_1220,Simcolourproject_2stim_asymm_v1,2020.1.2,59.92106658474667,
5,4,FF,0,8,8,8,91.17758788302308,91.43988240597537,91.17758788302308,None,91.69044714601478,None,91.69044714601478,None,91.69044714601478,None,91.69044714601478,None,91.69044714601478,None,91.69044714601478,None,91.69044714601478,None,91.69044714601478,None,0.09875,0.02875,1,0,0,response1disk,0.015627081971615553,None,91.69044714601478,None,91.69044714601478,None,92.30801278090803,None,92.30801278090803,None,92.30801278090803,None,92.30801278090803,None,92.30801278090803,None,92.30801278090803,None,92.30801278090803,None,92.30801278090803,None,0.09875,0.02875,1,0,0,response1disk,0.003193192882463336,None,92.30801278090803,None,92.30801278090803,None,92.34127817099215,None,92.34127817099215,None,92.34127817099215,None,92.34127817099215,None,92.34127817099215,None,92.34127817099215,None,92.34127817099215,None,92.34127817099215,None,0.02875,-0.0075,1,0,0,rectangle,0.008587868825998157,None,92.34127817099215,None,92.34127817099215,None,92.34127817099215,None,,001,2020_Oct_12_1220,Simcolourproject_2stim_asymm_v1,2020.1.2,59.92106658474667,
2,1,PF,0,9,9,9,92.89333960198564,93.1573634329834,92.89333960198564,None,93.4068876960082,None,93.4068876960082,None,93.4068876960082,None,93.4068876960082,None,93.4068876960082,None,93.4068876960082,None,93.4068876960082,None,93.4068876960082,None,0.06375,-0.145,1,0,0,response3disk,0.015627693908754736,None,93.4068876960082,None,93.4068876960082,None,94.47473388491198,None,94.47473388491198,None,94.47473388491198,None,94.47473388491198,None,94.47473388491198,None,94.47473388491198,None,94.47473388491198,None,94.47473388491198,None,0.06375,-0.145,1,0,0,response3disk,0.005053622939158231,None,94.47473388491198,None,94.47473388491198,None,94.4917400549748,None,94.4917400549748,None,94.4917400549748,None,94.4917400549748,None,94.4917400549748,None,94.4917400549748,None,94.4917400549748,None,94.4917400549748,None,0.01625,-0.0225,1,0,0,rectangle,0.013889240857679397,None,94.4917400549748,None,94.4917400549748,None,94.4917400549748,None,,001,2020_Oct_12_1220,Simcolourproject_2stim_asymm_v1,2020.1.2,59.92106658474667,
7,9,PF,0,10,10,10,95.19496548501775,95.45902815199224,95.19496548501775,None,95.70820355199976,None,95.70820355199976,None,95.70820355199976,None,95.70820355199976,None,95.70820355199976,None,95.70820355199976,None,95.70820355199976,None,95.70820355199976,None,0.0475,-0.10625,1,0,0,response3disk,0.015626651933416724,None,95.70820355199976,None,95.70820355199976,None,101.56380912679015,None,101.56380912679015,None,101.56380912679015,None,101.56380912679015,None,101.56380912679015,None,101.56380912679015,None,101.56380912679015,None,101.56380912679015,None,0.0475,-0.10625,1,0,0,response3disk,0.015783606795594096,None,101.56380912679015,None,101.56380912679015,None,101.57931506901514,None,101.57931506901514,None,101.57931506901514,None,101.57931506901514,None,101.57931506901514,None,101.57931506901514,None,101.57931506901514,None,101.57931506901514,None,0.0075,-0.00375,1,0,0,rectangle,0.002180810843128711,None,101.57931506901514,None,101.57931506901514,None,101.57931506901514,None,,001,2020_Oct_12_1220,Simcolourproject_2stim_asymm_v1,2020.1.2,59.92106658474667,
9,2,FF,0,11,11,11,101.92775592696853,102.17881240899442,101.92775592696853,None,102.42828886100324,None,102.42828886100324,None,102.42828886100324,None,102.42828886100324,None,102.42828886100324,None,102.42828886100324,None,102.42828886100324,None,102.42828886100324,None,0.04625,-0.08375,1,0,0,response3disk,0.015832999895792454,None,102.42828886100324,None,102.42828886100324,None,103.1330575539032,None,103.1330575539032,None,103.1330575539032,None,103.1330575539032,None,103.1330575539032,None,103.1330575539032,None,103.1330575539032,None,103.1330575539032,None,0.04625,-0.08375,1,0,0,response3disk,0.00884292193222791,None,103.1330575539032,None,103.1330575539032,None,103.1632752980222,None,103.1632752980222,None,103.1632752980222,None,103.1632752980222,None,103.1632752980222,None,103.1632752980222,None,103.1632752980222,None,103.1632752980222,None,0.0125,-0.02375,1,0,0,rectangle,0.014813130779657513,None,103.1632752980222,None,103.1632752980222,None,103.1632752980222,None,,001,2020_Oct_12_1220,Simcolourproject_2stim_asymm_v1,2020.1.2,59.92106658474667,
5,6,FF,0,12,12,12,103.49991326598683,103.7632495079888,103.49991326598683,None,104.01468187000137,None,104.01468187000137,None,104.01468187000137,None,104.01468187000137,None,104.01468187000137,None,104.01468187000137,None,104.01468187000137,None,104.01468187000137,None,0.085,-0.15375,1,0,0,response3disk,0.015600854938384145,None,104.01468187000137,None,104.01468187000137,None,110.83240129088517,None,110.83240129088517,None,110.83240129088517,None,110.83240129088517,None,110.83240129088517,None,110.83240129088517,None,110.83240129088517,None,110.83240129088517,None,0.085,-0.15375,1,0,0,response3disk,0.00923232885543257,None,110.83240129088517,None,110.83240129088517,None,110.8493773189839,None,110.8493773189839,None,110.8493773189839,None,110.8493773189839,None,110.8493773189839,None,110.8493773189839,None,110.8493773189839,None,110.8493773189839,None,0.01125,-0.01375,1,0,0,rectangle,0.0007491388241760433,None,110.8493773189839,None,110.8493773189839,None,110.8493773189839,None,,001,2020_Oct_12_1220,Simcolourproject_2stim_asymm_v1,2020.1.2,59.92106658474667,
4,2,FF,0,13,13,13,111.38249217596604,111.63304706400959,111.38249217596604,None,111.88267262099544,None,111.88267262099544,None,111.88267262099544,None,111.88267262099544,None,111.88267262099544,None,111.88267262099544,None,111.88267262099544,None,111.88267262099544,None,-0.0575,0.085,1,0,0,response7disk,0.01560140895890072,None,111.88267262099544,None,111.88267262099544,None,113.33366430288879,None,113.33366430288879,None,113.33366430288879,None,113.33366430288879,None,113.33366430288879,None,113.33366430288879,None,113.33366430288879,None,113.33366430288879,None,-0.0575,0.085,1,0,0,response7disk,0.004609185911249369,None,113.33366430288879,None,113.33366430288879,None,113.35126903699711,None,113.35126903699711,None,113.35126903699711,None,113.35126903699711,None,113.35126903699711,None,113.35126903699711,None,113.35126903699711,None,113.35126903699711,None,0.02625,0.00875,1,0,0,rectangle,0.013438495807349682,None,113.35126903699711,None,113.35126903699711,None,113.35126903699711,None,,001,2020_Oct_12_1220,Simcolourproject_2stim_asymm_v1,2020.1.2,59.92106658474667,
2,2,PF,0,14,14,14,113.70080834598048,113.9506621779874,113.70080834598048,None,114.20024641300552,None,114.20024641300552,None,114.20024641300552,None,114.20024641300552,None,114.20024641300552,None,114.20024641300552,None,114.20024641300552,None,114.20024641300552,None,-0.04375,0.08875,1,0,0,response7disk,0.015631011920049787,None,114.20024641300552,None,114.20024641300552,None,114.88418654492125,None,114.88418654492125,None,114.88418654492125,None,114.88418654492125,None,114.88418654492125,None,114.88418654492125,None,114.88418654492125,None,114.88418654492125,None,-0.04375,0.08875,1,0,0,response7disk,0.008590974903199822,None,114.88418654492125,None,114.88418654492125,None,114.90069495496573,None,114.90069495496573,None,114.90069495496573,None,114.90069495496573,None,114.90069495496573,None,114.90069495496573,None,114.90069495496573,None,114.90069495496573,None,-0.0075,0.00125,1,0,0,rectangle,0.0164106268202886,None,114.90069495496573,None,114.90069495496573,None,114.90069495496573,None,,001,2020_Oct_12_1220,Simcolourproject_2stim_asymm_v1,2020.1.2,59.92106658474667,
1,9,PF,0,15,15,15,115.28691977000562,115.55061135499272,115.28691977000562,None,115.80167348997202,None,115.80167348997202,None,115.80167348997202,None,115.80167348997202,None,115.80167348997202,None,115.80167348997202,None,115.80167348997202,None,115.80167348997202,None,0.0775,-0.05125,1,0,0,response3disk,0.015623576939105988,None,115.80167348997202,None,115.80167348997202,None,116.56882133689942,None,116.56882133689942,None,116.56882133689942,None,116.56882133689942,None,116.56882133689942,None,116.56882133689942,None,116.56882133689942,None,116.56882133689942,None,0.0775,-0.05125,1,0,0,response3disk,0.005204093875363469,None,116.56882133689942,None,116.56882133689942,None,116.58558891498251,None,116.58558891498251,None,116.58558891498251,None,116.58558891498251,None,116.58558891498251,None,116.58558891498251,None,116.58558891498251,None,116.58558891498251,None,-0.03375,0.0125,1,0,0,rectangle,0.01414964278228581,None,116.58558891498251,None,116.58558891498251,None,116.58558891498251,None,,001,2020_Oct_12_1220,Simcolourproject_2stim_asymm_v1,2020.1.2,59.92106658474667,
5,8,FF,0,16,16,16,117.28744057699805,117.55228243401507,117.28744057699805,None,117.80287753697485,None,117.80287753697485,None,117.80287753697485,None,117.80287753697485,None,117.80287753697485,None,117.80287753697485,None,117.80287753697485,None,117.80287753697485,None,-0.035,-0.13,1,0,0,response5disk,0.015635803865734488,None,117.80287753697485,None,117.80287753697485,None,118.13516903790878,None,118.13516903790878,None,118.13516903790878,None,118.13516903790878,None,118.13516903790878,None,118.13516903790878,None,118.13516903790878,None,118.13516903790878,None,-0.035,-0.13,1,0,0,response5disk,0.004288394935429096,None,118.13516903790878,None,118.13516903790878,None,118.15281311096624,None,118.15281311096624,None,118.15281311096624,None,118.15281311096624,None,118.15281311096624,None,118.15281311096624,None,118.15281311096624,None,118.15281311096624,None,-0.015,0.02625,1,0,0,rectangle,0.013220581808127463,None,118.15281311096624,None,118.15281311096624,None,118.15281311096624,None,,001,2020_Oct_12_1220,Simcolourproject_2stim_asymm_v1,2020.1.2,59.92106658474667,
9,9,FF,0,17,17,17,118.9882819110062,119.25274904398248,118.9882819110062,None,119.50452053599292,None,119.50452053599292,None,119.50452053599292,None,119.50452053599292,None,119.50452053599292,None,119.50452053599292,None,119.50452053599292,None,119.50452053599292,None,0.03625,-0.09125,1,0,0,response3disk,0.015428037906531245,None,119.50452053599292,None,119.50452053599292,None,119.85315634286962,None,119.85315634286962,None,119.85315634286962,None,119.85315634286962,None,119.85315634286962,None,119.85315634286962,None,119.85315634286962,None,119.85315634286962,None,0.03625,-0.09125,1,0,0,response3disk,0.0045704799122177064,None,119.85315634286962,None,119.85315634286962,None,119.87039466598071,None,119.87039466598071,None,119.87039466598071,None,119.87039466598071,None,119.87039466598071,None,119.87039466598071,None,119.87039466598071,None,119.87039466598071,None,0.0075,-0.0075,1,0,0,rectangle,0.013621384743601084,None,119.87039466598071,None,119.87039466598071,None,119.87039466598071,None,,001,2020_Oct_12_1220,Simcolourproject_2stim_asymm_v1,2020.1.2,59.92106658474667,
6,7,FF,0,18,18,18,120.30518185300753,120.57020719599677,120.30518185300753,None,120.8059775349684,None,120.8059775349684,None,120.8059775349684,None,120.8059775349684,None,120.8059775349684,None,120.8059775349684,None,120.8059775349684,None,120.8059775349684,None,0.09875,-0.06125,1,0,0,response3disk,0.01549114694353193,None,120.8059775349684,None,120.8059775349684,None,121.13709787989501,None,121.13709787989501,None,121.13709787989501,None,121.13709787989501,None,121.13709787989501,None,121.13709787989501,None,121.13709787989501,None,121.13709787989501,None,0.09875,-0.06125,1,0,0,response3disk,0.005174708901904523,None,121.13709787989501,None,121.13709787989501,None,121.15529013297055,None,121.15529013297055,None,121.15529013297055,None,121.15529013297055,None,121.15529013297055,None,121.15529013297055,None,121.15529013297055,None,121.15529013297055,None,0.00625,-0.0025,1,0,0,rectangle,0.012428492773324251,None,121.15529013297055,None,121.15529013297055,None,121.15529013297055,None,,001,2020_Oct_12_1220,Simcolourproject_2stim_asymm_v1,2020.1.2,59.92106658474667,
5,5,FF,0,19,19,19,121.53970798500814,121.80421633797232,121.53970798500814,None,122.0545262270025,None,122.0545262270025,None,122.0545262270025,None,122.0545262270025,None,122.0545262270025,None,122.0545262270025,None,122.0545262270025,None,122.0545262270025,None,0.03625,-0.115,1,0,0,response3disk,0.01561874191975221,None,122.0545262270025,None,122.0545262270025,None,122.838228673907,None,122.838228673907,None,122.838228673907,None,122.838228673907,None,122.838228673907,None,122.838228673907,None,122.838228673907,None,122.838228673907,None,0.03625,-0.115,1,0,0,response3disk,0.004731689929030836,None,122.838228673907,None,122.838228673907,None,122.8568919969839,None,122.8568919969839,None,122.8568919969839,None,122.8568919969839,None,122.8568919969839,None,122.8568919969839,None,122.8568919969839,None,122.8568919969839,None,-0.02125,-0.01375,1,0,0,rectangle,0.012014341773465276,None,122.8568919969839,None,122.8568919969839,None,122.8568919969839,None,,001,2020_Oct_12_1220,Simcolourproject_2stim_asymm_v1,2020.1.2,59.92106658474667,
8,1,FF,0,20,20,20,123.27345487201819,123.53801518899854,123.27345487201819,None,123.78893244697247,None,123.78893244697247,None,123.78893244697247,None,123.78893244697247,None,123.78893244697247,None,123.78893244697247,None,123.78893244697247,None,123.78893244697247,None,-0.05625,-0.125,1,0,0,response5disk,0.015615714946761727,None,123.78893244697247,None,123.78893244697247,None,124.05565186886815,None,124.05565186886815,None,124.05565186886815,None,124.05565186886815,None,124.05565186886815,None,124.05565186886815,None,124.05565186886815,None,124.05565186886815,None,-0.05625,-0.125,1,0,0,response5disk,0.00443606183398515,None,124.05565186886815,None,124.05565186886815,None,124.07280493201688,None,124.07280493201688,None,124.07280493201688,None,124.07280493201688,None,124.07280493201688,None,124.07280493201688,None,124.07280493201688,None,124.07280493201688,None,-0.00125,0.00875,1,0,0,rectangle,0.013326460786629468,None,124.07280493201688,None,124.07280493201688,None,124.07280493201688,None,,001,2020_Oct_12_1220,Simcolourproject_2stim_asymm_v1,2020.1.2,59.92106658474667,
6,3,FF,0,21,21,21,124.45739359396975,124.7225995339686,124.45739359396975,None,124.9753696959815,None,124.9753696959815,None,124.9753696959815,None,124.9753696959815,None,124.9753696959815,None,124.9753696959815,None,124.9753696959815,None,124.9753696959815,None,-0.09,-0.05125,1,0,0,response5disk,0.015111239859834313,None,124.9753696959815,None,124.9753696959815,None,125.47347481088946,None,125.47347481088946,None,125.47347481088946,None,125.47347481088946,None,125.47347481088946,None,125.47347481088946,None,125.47347481088946,None,125.47347481088946,None,-0.09,-0.05125,1,0,0,response5disk,0.004429275868460536,None,125.47347481088946,None,125.47347481088946,None,125.49175098101841,None,125.49175098101841,None,125.49175098101841,None,125.49175098101841,None,125.49175098101841,None,125.49175098101841,None,125.49175098101841,None,125.49175098101841,None,0.01625,0.00125,1,0,0,rectangle,0.013321267790161073,None,125.49175098101841,None,125.49175098101841,None,125.49175098101841,None,,001,2020_Oct_12_1220,Simcolourproject_2stim_asymm_v1,2020.1.2,59.92106658474667,
8,2,FF,0,22,22,22,125.92484906397294,126.18988842098042,125.92484906397294,None,126.44033165602013,None,126.44033165602013,None,126.44033165602013,None,126.44033165602013,None,126.44033165602013,None,126.44033165602013,None,126.44033165602013,None,126.44033165602013,None,0.07,-0.12375,1,0,0,response3disk,0.015271331940311939,None,126.44033165602013,None,126.44033165602013,None,126.77321875788039,None,126.77321875788039,None,126.77321875788039,None,126.77321875788039,None,126.77321875788039,None,126.77321875788039,None,126.77321875788039,None,126.77321875788039,None,0.07,-0.12375,1,0,0,response3disk,0.003960509842727333,None,126.77321875788039,None,126.77321875788039,None,126.79089993797243,None,126.79089993797243,None,126.79089993797243,None,126.79089993797243,None,126.79089993797243,None,126.79089993797243,None,126.79089993797243,None,126.79089993797243,None,0.015,0.0,1,0,0,rectangle,0.012822131742723286,None,126.79089993797243,None,126.79089993797243,None,126.79089993797243,None,,001,2020_Oct_12_1220,Simcolourproject_2stim_asymm_v1,2020.1.2,59.92106658474667,
8,7,PF,0,23,23,23,127.34231922501931,127.60740549501497,127.34231922501931,None,127.85728979296982,None,127.85728979296982,None,127.85728979296982,None,127.85728979296982,None,127.85728979296982,None,127.85728979296982,None,127.85728979296982,None,127.85728979296982,None,-0.0375,0.07625,1,0,0,response7disk,0.015624019841197878,None,127.85728979296982,None,127.85728979296982,None,128.39094299689168,None,128.39094299689168,None,128.39094299689168,None,128.39094299689168,None,128.39094299689168,None,128.39094299689168,None,128.39094299689168,None,128.39094299689168,None,-0.0375,0.07625,1,0,0,response7disk,0.004270791891030967,None,128.39094299689168,None,128.39094299689168,None,128.42346605297644,None,128.42346605297644,None,128.42346605297644,None,128.42346605297644,None,128.42346605297644,None,128.42346605297644,None,128.42346605297644,None,128.42346605297644,None,-0.0175,-0.00375,1,0,0,rectangle,0.010782303812447935,None,128.42346605297644,None,128.42346605297644,None,128.42346605297644,None,,001,2020_Oct_12_1220,Simcolourproject_2stim_asymm_v1,2020.1.2,59.92106658474667,
1,2,PF,0,24,24,24,128.85906042996794,129.12477335700532,128.85906042996794,None,129.37432558002183,None,129.37432558002183,None,129.37432558002183,None,129.37432558002183,None,129.37432558002183,None,129.37432558002183,None,129.37432558002183,None,129.37432558002183,None,0.0375,-0.06875,1,0,0,response3disk,0.015598176920320839,None,129.37432558002183,None,129.37432558002183,None,129.92432904691668,None,129.92432904691668,None,129.92432904691668,None,129.92432904691668,None,129.92432904691668,None,129.92432904691668,None,129.92432904691668,None,129.92432904691668,None,0.0375,-0.06875,1,0,0,response3disk,0.004650974937248975,None,129.92432904691668,None,129.92432904691668,None,129.94122649502242,None,129.94122649502242,None,129.94122649502242,None,129.94122649502242,None,129.94122649502242,None,129.94122649502242,None,129.94122649502242,None,129.94122649502242,None,-0.00375,0.015,1,0,0,rectangle,0.013573880773037672,None,129.94122649502242,None,129.94122649502242,None,129.94122649502242,None,,001,2020_Oct_12_1220,Simcolourproject_2stim_asymm_v1,2020.1.2,59.92106658474667,
5,3,FF,0,25,25,25,130.67711205402156,130.94200120697496,130.67711205402156,None,131.1923318040208,None,131.1923318040208,None,131.1923318040208,None,131.1923318040208,None,131.1923318040208,None,131.1923318040208,None,131.1923318040208,None,131.1923318040208,None,-0.0375,-0.10625,1,0,0,response5disk,0.015601353894453496,None,131.1923318040208,None,131.1923318040208,None,132.35923559591174,None,132.35923559591174,None,132.35923559591174,None,132.35923559591174,None,132.35923559591174,None,132.35923559591174,None,132.35923559591174,None,132.35923559591174,None,-0.0375,-0.10625,1,0,0,response5disk,0.008541102928575128,None,132.35923559591174,None,132.35923559591174,None,132.3758783339872,None,132.3758783339872,None,132.3758783339872,None,132.3758783339872,None,132.3758783339872,None,132.3758783339872,None,132.3758783339872,None,132.3758783339872,None,0.00125,0.01,1,0,0,rectangle,0.015837157843634486,None,132.3758783339872,None,132.3758783339872,None,132.3758783339872,None,,001,2020_Oct_12_1220,Simcolourproject_2stim_asymm_v1,2020.1.2,59.92106658474667,
6,3,PF,0,26,26,26,132.94579220900778,133.20970758597832,132.94579220900778,None,133.46178000199143,None,133.46178000199143,None,133.46178000199143,None,133.46178000199143,None,133.46178000199143,None,133.46178000199143,None,133.46178000199143,None,133.46178000199143,None,0.04875,-0.08125,1,0,0,response3disk,0.01548451988492161,None,133.46178000199143,None,133.46178000199143,None,134.0104706629063,None,134.0104706629063,None,134.0104706629063,None,134.0104706629063,None,134.0104706629063,None,134.0104706629063,None,134.0104706629063,None,134.0104706629063,None,0.04875,-0.08125,1,0,0,response3disk,0.004197061876766384,None,134.0104706629063,None,134.0104706629063,None,134.04364202497527,None,134.04364202497527,None,134.04364202497527,None,134.04364202497527,None,134.04364202497527,None,134.04364202497527,None,134.04364202497527,None,134.04364202497527,None,0.01625,0.00375,1,0,0,rectangle,0.010566848795861006,None,134.04364202497527,None,134.04364202497527,None,134.04364202497527,None,,001,2020_Oct_12_1220,Simcolourproject_2stim_asymm_v1,2020.1.2,59.92106658474667,
1,8,FF,0,27,27,27,134.49825852899812,134.76086522999685,134.49825852899812,None,135.01349188800668,None,135.01349188800668,None,135.01349188800668,None,135.01349188800668,None,135.01349188800668,None,135.01349188800668,None,135.01349188800668,None,135.01349188800668,None,0.07375,0.11625,1,0,0,response1disk,0.01556256489129737,None,135.01349188800668,None,135.01349188800668,None,136.0610638319049,None,136.0610638319049,None,136.0610638319049,None,136.0610638319049,None,136.0610638319049,None,136.0610638319049,None,136.0610638319049,None,136.0610638319049,None,0.07375,0.11625,1,0,0,response1disk,0.004547978925984353,None,136.0610638319049,None,136.0610638319049,None,136.0780836920021,None,136.0780836920021,None,136.0780836920021,None,136.0780836920021,None,136.0780836920021,None,136.0780836920021,None,136.0780836920021,None,136.0780836920021,None,0.025,-0.025,1,0,0,rectangle,0.013578078767750412,None,136.0780836920021,None,136.0780836920021,None,136.0780836920021,None,,001,2020_Oct_12_1220,Simcolourproject_2stim_asymm_v1,2020.1.2,59.92106658474667,
1,5,PF,0,28,28,28,136.52935118996538,136.79465979197994,136.52935118996538,None,137.0451925320085,None,137.0451925320085,None,137.0451925320085,None,137.0451925320085,None,137.0451925320085,None,137.0451925320085,None,137.0451925320085,None,137.0451925320085,None,0.11375,-0.06875,1,0,0,response3disk,0.015619104902725667,None,137.0451925320085,None,137.0451925320085,None,137.86206614092225,None,137.86206614092225,None,137.86206614092225,None,137.86206614092225,None,137.86206614092225,None,137.86206614092225,None,137.86206614092225,None,137.86206614092225,None,0.11375,-0.06875,1,0,0,response3disk,0.0049269868759438396,None,137.86206614092225,None,137.86206614092225,None,137.87855797901284,None,137.87855797901284,None,137.87855797901284,None,137.87855797901284,None,137.87855797901284,None,137.87855797901284,None,137.87855797901284,None,137.87855797901284,None,0.01875,-0.01375,1,0,0,rectangle,0.014273772772867233,None,137.87855797901284,None,137.87855797901284,None,137.87855797901284,None,,001,2020_Oct_12_1220,Simcolourproject_2stim_asymm_v1,2020.1.2,59.92106658474667,
7,6,PF,0,29,29,29,138.4142819539993,138.67908833600814,138.4142819539993,None,138.93048405699665,None,138.93048405699665,None,138.93048405699665,None,138.93048405699665,None,138.93048405699665,None,138.93048405699665,None,138.93048405699665,None,138.93048405699665,None,0.04375,-0.105,1,0,0,response3disk,0.015065284911543131,None,138.93048405699665,None,138.93048405699665,None,139.27930115087656,None,139.27930115087656,None,139.27930115087656,None,139.27930115087656,None,139.27930115087656,None,139.27930115087656,None,139.27930115087656,None,139.27930115087656,None,0.04375,-0.105,1,0,0,response3disk,0.004446586885023862,None,139.27930115087656,None,139.27930115087656,None,139.29657171596773,None,139.29657171596773,None,139.29657171596773,None,139.29657171596773,None,139.29657171596773,None,139.29657171596773,None,139.29657171596773,None,139.29657171596773,None,0.0025,-0.01375,1,0,0,rectangle,0.013500717817805707,None,139.29657171596773,None,139.29657171596773,None,139.29657171596773,None,,001,2020_Oct_12_1220,Simcolourproject_2stim_asymm_v1,2020.1.2,59.92106658474667,
3,4,PF,0,30,30,30,139.7980873429915,140.06305896601407,139.7980873429915,None,140.31263063597726,None,140.31263063597726,None,140.31263063597726,None,140.31263063597726,None,140.31263063597726,None,140.31263063597726,None,140.31263063597726,None,140.31263063597726,None,-0.06125,-0.11,1,0,0,response5disk,0.015616226883139461,None,140.31263063597726,None,140.31263063597726,None,140.9463200448663,None,140.9463200448663,None,140.9463200448663,None,140.9463200448663,None,140.9463200448663,None,140.9463200448663,None,140.9463200448663,None,140.9463200448663,None,-0.06125,-0.11,1,0,0,response5disk,0.008560451911762357,None,140.9463200448663,None,140.9463200448663,None,140.96303088997956,None,140.96303088997956,None,140.96303088997956,None,140.96303088997956,None,140.96303088997956,None,140.96303088997956,None,140.96303088997956,None,140.96303088997956,None,0.00875,0.00875,1,0,0,rectangle,0.0002555769169703126,None,140.96303088997956,None,140.96303088997956,None,140.96303088997956,None,,001,2020_Oct_12_1220,Simcolourproject_2stim_asymm_v1,2020.1.2,59.92106658474667,
7,6,FF,0,31,31,31,141.44905426801415,141.71372913499363,141.44905426801415,None,141.96421060501598,None,141.96421060501598,None,141.96421060501598,None,141.96421060501598,None,141.96421060501598,None,141.96421060501598,None,141.96421060501598,None,141.96421060501598,None,-0.0925,-0.045,1,0,0,response5disk,0.015103281883057207,None,141.96421060501598,None,141.96421060501598,None,142.39746835187543,None,142.39746835187543,None,142.39746835187543,None,142.39746835187543,None,142.39746835187543,None,142.39746835187543,None,142.39746835187543,None,142.39746835187543,None,-0.0925,-0.045,1,0,0,response5disk,0.0049627338303253055,None,142.39746835187543,None,142.39746835187543,None,142.4141285350197,None,142.4141285350197,None,142.4141285350197,None,142.4141285350197,None,142.4141285350197,None,142.4141285350197,None,142.4141285350197,None,142.4141285350197,None,0.02375,-0.0075,1,0,0,rectangle,0.01400509278755635,None,142.4141285350197,None,142.4141285350197,None,142.4141285350197,None,,001,2020_Oct_12_1220,Simcolourproject_2stim_asymm_v1,2020.1.2,59.92106658474667,
7,2,PF,0,32,32,32,142.89927073201397,143.16447546699783,142.89927073201397,None,143.4146447799867,None,143.4146447799867,None,143.4146447799867,None,143.4146447799867,None,143.4146447799867,None,143.4146447799867,None,143.4146447799867,None,143.4146447799867,None,0.06125,-0.12,1,0,0,response3disk,0.015612196933943778,None,143.4146447799867,None,143.4146447799867,None,144.33193483389914,None,144.33193483389914,None,144.33193483389914,None,144.33193483389914,None,144.33193483389914,None,144.33193483389914,None,144.33193483389914,None,144.33193483389914,None,0.06125,-0.12,1,0,0,response3disk,0.005228821944911033,None,144.33193483389914,None,144.33193483389914,None,144.35027275700122,None,144.35027275700122,None,144.35027275700122,None,144.35027275700122,None,144.35027275700122,None,144.35027275700122,None,144.35027275700122,None,144.35027275700122,None,0.02375,-0.02375,1,0,0,rectangle,0.013273991760797799,None,144.35027275700122,None,144.35027275700122,None,144.35027275700122,None,,001,2020_Oct_12_1220,Simcolourproject_2stim_asymm_v1,2020.1.2,59.92106658474667,
6,4,PF,0,33,33,33,144.96739193599205,145.2322394310031,144.96739193599205,None,145.48504388000583,None,145.48504388000583,None,145.48504388000583,None,145.48504388000583,None,145.48504388000583,None,145.48504388000583,None,145.48504388000583,None,145.48504388000583,None,0.1175,-0.055,1,0,0,response3disk,0.015406167949549854,None,145.48504388000583,None,145.48504388000583,None,146.16597094287863,None,146.16597094287863,None,146.16597094287863,None,146.16597094287863,None,146.16597094287863,None,146.16597094287863,None,146.16597094287863,None,146.16597094287863,None,0.1175,-0.055,1,0,0,response3disk,0.004612139891833067,None,146.16597094287863,None,146.16597094287863,None,146.1829108609818,None,146.1829108609818,None,146.1829108609818,None,146.1829108609818,None,146.1829108609818,None,146.1829108609818,None,146.1829108609818,None,146.1829108609818,None,0.01875,-0.01625,1,0,0,rectangle,0.013621704827528447,None,146.1829108609818,None,146.1829108609818,None,146.1829108609818,None,,001,2020_Oct_12_1220,Simcolourproject_2stim_asymm_v1,2020.1.2,59.92106658474667,
7,7,FF,0,34,34,34,146.81757505598944,147.08299903798616,146.81757505598944,None,147.3325358859729,None,147.3325358859729,None,147.3325358859729,None,147.3325358859729,None,147.3325358859729,None,147.3325358859729,None,147.3325358859729,None,147.3325358859729,None,0.12625,0.05125,1,0,0,response1disk,0.01562191394623369,None,147.3325358859729,None,147.3325358859729,None,148.36911092686933,None,148.36911092686933,None,148.36911092686933,None,148.36911092686933,None,148.36911092686933,None,148.36911092686933,None,148.36911092686933,None,148.36911092686933,None,0.12625,0.05125,1,0,0,response1disk,0.002283802896272391,None,148.36911092686933,None,148.36911092686933,None,148.40014793199953,None,148.40014793199953,None,148.40014793199953,None,148.40014793199953,None,148.40014793199953,None,148.40014793199953,None,148.40014793199953,None,148.40014793199953,None,0.0025,-0.015,1,0,0,rectangle,0.006048838782589883,None,148.40014793199953,None,148.40014793199953,None,148.40014793199953,None,,001,2020_Oct_12_1220,Simcolourproject_2stim_asymm_v1,2020.1.2,59.92106658474667,
4,8,FF,0,35,35,35,149.0686294430052,149.33403716800967,149.0686294430052,None,149.58490869600791,None,149.58490869600791,None,149.58490869600791,None,149.58490869600791,None,149.58490869600791,None,149.58490869600791,None,149.58490869600791,None,149.58490869600791,None,0.03125,0.13375,1,0,0,response1disk,0.015700695919804275,None,149.58490869600791,None,149.58490869600791,None,150.21807421091944,None,150.21807421091944,None,150.21807421091944,None,150.21807421091944,None,150.21807421091944,None,150.21807421091944,None,150.21807421091944,None,150.21807421091944,None,0.03125,0.13375,1,0,0,response1disk,0.004296085913665593,None,150.21807421091944,None,150.21807421091944,None,150.23671988100978,None,150.23671988100978,None,150.23671988100978,None,150.23671988100978,None,150.23671988100978,None,150.23671988100978,None,150.23671988100978,None,150.23671988100978,None,0.03,-0.02875,1,0,0,rectangle,0.012995921832043678,None,150.23671988100978,None,150.23671988100978,None,150.23671988100978,None,,001,2020_Oct_12_1220,Simcolourproject_2stim_asymm_v1,2020.1.2,59.92106658474667,
3,2,PF,0,36,36,36,150.9040117819677,151.16842674696818,150.9040117819677,None,151.41843224898912,None,151.41843224898912,None,151.41843224898912,None,151.41843224898912,None,151.41843224898912,None,151.41843224898912,None,151.41843224898912,None,151.41843224898912,None,-0.0475,0.03875,1,0,0,response7disk,0.015618918871041387,None,151.41843224898912,None,151.41843224898912,None,152.01863441086607,None,152.01863441086607,None,152.01863441086607,None,152.01863441086607,None,152.01863441086607,None,152.01863441086607,None,152.01863441086607,None,152.01863441086607,None,-0.0475,0.03875,1,0,0,response7disk,0.001749431889038533,None,152.01863441086607,None,152.01863441086607,None,152.03859922400443,None,152.03859922400443,None,152.03859922400443,None,152.03859922400443,None,152.03859922400443,None,152.03859922400443,None,152.03859922400443,None,152.03859922400443,None,-0.00125,-0.005,1,0,0,rectangle,0.010726470791269094,None,152.03859922400443,None,152.03859922400443,None,152.03859922400443,None,,001,2020_Oct_12_1220,Simcolourproject_2stim_asymm_v1,2020.1.2,59.92106658474667,
8,6,FF,0,37,37,37,152.80502133100526,153.0694024770055,152.80502133100526,None,153.3208437730209,None,153.3208437730209,None,153.3208437730209,None,153.3208437730209,None,153.3208437730209,None,153.3208437730209,None,153.3208437730209,None,153.3208437730209,None,-0.03375,-0.1075,1,0,0,response5disk,0.015423541888594627,None,153.3208437730209,None,153.3208437730209,None,158.35500433587003,None,158.35500433587003,None,158.35500433587003,None,158.35500433587003,None,158.35500433587003,None,158.35500433587003,None,158.35500433587003,None,158.35500433587003,None,-0.03375,-0.1075,1,0,0,response5disk,0.0037148508708924055,None,158.35500433587003,None,158.35500433587003,None,158.3736350859981,None,158.3736350859981,None,158.3736350859981,None,158.3736350859981,None,158.3736350859981,None,158.3736350859981,None,158.3736350859981,None,158.3736350859981,None,-0.0075,-0.00625,1,0,0,rectangle,0.012229239742737263,None,158.3736350859981,None,158.3736350859981,None,158.3736350859981,None,,001,2020_Oct_12_1220,Simcolourproject_2stim_asymm_v1,2020.1.2,59.92106658474667,
4,7,PF,0,38,38,38,158.73994271398988,159.0061741460231,158.73994271398988,None,159.25545762100955,None,159.25545762100955,None,159.25545762100955,None,159.25545762100955,None,159.25545762100955,None,159.25545762100955,None,159.25545762100955,None,159.25545762100955,None,-0.07125,-0.0925,1,0,0,response5disk,0.015698798873927444,None,159.25545762100955,None,159.25545762100955,None,180.6505661138799,None,180.6505661138799,None,180.6505661138799,None,180.6505661138799,None,180.6505661138799,None,180.6505661138799,None,180.6505661138799,None,180.6505661138799,None,-0.07125,-0.0925,1,0,0,response5disk,0.003863170917611569,None,180.6505661138799,None,180.6505661138799,None,180.68233640800463,None,180.68233640800463,None,180.68233640800463,None,180.68233640800463,None,180.68233640800463,None,180.68233640800463,None,180.68233640800463,None,180.68233640800463,None,-0.005,0.02625,1,0,0,rectangle,0.011018755787517875,None,180.68233640800463,None,180.68233640800463,None,180.68233640800463,None,,001,2020_Oct_12_1220,Simcolourproject_2stim_asymm_v1,2020.1.2,59.92106658474667,
2,9,PF,0,39,39,39,181.03291690797778,181.28331099299248,181.03291690797778,None,181.54993101296714,None,181.54993101296714,None,181.54993101296714,None,181.54993101296714,None,181.54993101296714,None,181.54993101296714,None,181.54993101296714,None,181.54993101296714,None,-0.07375,0.115,1,0,0,response7disk,0.015872662886977196,None,181.54993101296714,None,181.54993101296714,None,182.10351612587692,None,182.10351612587692,None,182.10351612587692,None,182.10351612587692,None,182.10351612587692,None,182.10351612587692,None,182.10351612587692,None,182.10351612587692,None,-0.07375,0.115,1,0,0,response7disk,0.0016273708897642791,None,182.10351612587692,None,182.10351612587692,None,182.13346113602165,None,182.13346113602165,None,182.13346113602165,None,182.13346113602165,None,182.13346113602165,None,182.13346113602165,None,182.13346113602165,None,182.13346113602165,None,-0.025,0.01625,1,0,0,rectangle,0.006939826824236661,None,182.13346113602165,None,182.13346113602165,None,182.13346113602165,None,,001,2020_Oct_12_1220,Simcolourproject_2stim_asymm_v1,2020.1.2,59.92106658474667,
2,6,FF,0,40,40,40,182.58366365201073,182.8331362719764,182.58366365201073,None,183.08337742998265,None,183.08337742998265,None,183.08337742998265,None,183.08337742998265,None,183.08337742998265,None,183.08337742998265,None,183.08337742998265,None,183.08337742998265,None,0.07125,-0.045,1,0,0,response3disk,0.015884190914221108,None,183.08337742998265,None,183.08337742998265,None,183.58480856090318,None,183.58480856090318,None,183.58480856090318,None,183.58480856090318,None,183.58480856090318,None,183.58480856090318,None,183.58480856090318,None,183.58480856090318,None,0.07125,-0.045,1,0,0,response3disk,0.00472922291373834,None,183.58480856090318,None,183.58480856090318,None,183.60252011200646,None,183.60252011200646,None,183.60252011200646,None,183.60252011200646,None,183.60252011200646,None,183.60252011200646,None,183.60252011200646,None,183.60252011200646,None,0.00125,-0.015,1,0,0,rectangle,0.013699471775908023,None,183.60252011200646,None,183.60252011200646,None,183.60252011200646,None,,001,2020_Oct_12_1220,Simcolourproject_2stim_asymm_v1,2020.1.2,59.92106658474667,
3,7,PF,0,41,41,41,184.05471969902283,184.31663702899823,184.05471969902283,None,184.56779681699118,None,184.56779681699118,None,184.56779681699118,None,184.56779681699118,None,184.56779681699118,None,184.56779681699118,None,184.56779681699118,None,184.56779681699118,None,0.05125,-0.125,1,0,0,response3disk,0.015166076947934926,None,184.56779681699118,None,184.56779681699118,None,184.9011530589196,None,184.9011530589196,None,184.9011530589196,None,184.9011530589196,None,184.9011530589196,None,184.9011530589196,None,184.9011530589196,None,184.9011530589196,None,0.05125,-0.125,1,0,0,response3disk,0.005218776874244213,None,184.9011530589196,None,184.9011530589196,None,184.9341884389869,None,184.9341884389869,None,184.9341884389869,None,184.9341884389869,None,184.9341884389869,None,184.9341884389869,None,184.9341884389869,None,184.9341884389869,None,0.00125,-0.0325,1,0,0,rectangle,0.012263894896022975,None,184.9341884389869,None,184.9341884389869,None,184.9341884389869,None,,001,2020_Oct_12_1220,Simcolourproject_2stim_asymm_v1,2020.1.2,59.92106658474667,
8,9,PF,0,42,42,42,185.3347501559765,185.58421715401346,185.3347501559765,None,185.83484778896673,None,185.83484778896673,None,185.83484778896673,None,185.83484778896673,None,185.83484778896673,None,185.83484778896673,None,185.83484778896673,None,185.83484778896673,None,-0.0525,-0.1175,1,0,0,response5disk,0.015544324880465865,None,185.83484778896673,None,185.83484778896673,None,186.20207655092236,None,186.20207655092236,None,186.20207655092236,None,186.20207655092236,None,186.20207655092236,None,186.20207655092236,None,186.20207655092236,None,186.20207655092236,None,-0.0525,-0.1175,1,0,0,response5disk,0.0046534109860658646,None,186.20207655092236,None,186.20207655092236,None,186.2346667079837,None,186.2346667079837,None,186.2346667079837,None,186.2346667079837,None,186.2346667079837,None,186.2346667079837,None,186.2346667079837,None,186.2346667079837,None,-0.00875,-0.0275,1,0,0,rectangle,0.01016493485076353,None,186.2346667079837,None,186.2346667079837,None,186.2346667079837,None,,001,2020_Oct_12_1220,Simcolourproject_2stim_asymm_v1,2020.1.2,59.92106658474667,
7,4,PF,0,43,43,43,186.68834096298087,186.9520256210235,186.68834096298087,None,187.20172513602301,None,187.20172513602301,None,187.20172513602301,None,187.20172513602301,None,187.20172513602301,None,187.20172513602301,None,187.20172513602301,None,187.20172513602301,None,-0.1,-0.07625,1,0,0,response5disk,0.015611426846589893,None,187.20172513602301,None,187.20172513602301,None,187.61820105987135,None,187.61820105987135,None,187.61820105987135,None,187.61820105987135,None,187.61820105987135,None,187.61820105987135,None,187.61820105987135,None,187.61820105987135,None,-0.1,-0.07625,1,0,0,response5disk,0.0045050939079374075,None,187.61820105987135,None,187.61820105987135,None,187.63554760598345,None,187.63554760598345,None,187.63554760598345,None,187.63554760598345,None,187.63554760598345,None,187.63554760598345,None,187.63554760598345,None,187.63554760598345,None,-0.00625,-0.005,1,0,0,rectangle,0.013575545803178102,None,187.63554760598345,None,187.63554760598345,None,187.63554760598345,None,,001,2020_Oct_12_1220,Simcolourproject_2stim_asymm_v1,2020.1.2,59.92106658474667,
3,8,FF,0,44,44,44,188.0883604529663,188.35261836799327,188.0883604529663,None,188.6029732999741,None,188.6029732999741,None,188.6029732999741,None,188.6029732999741,None,188.6029732999741,None,188.6029732999741,None,188.6029732999741,None,188.6029732999741,None,0.1075,-0.055,1,0,0,response3disk,0.015619503916241229,None,188.6029732999741,None,188.6029732999741,None,189.26962078886572,None,189.26962078886572,None,189.26962078886572,None,189.26962078886572,None,189.26962078886572,None,189.26962078886572,None,189.26962078886572,None,189.26962078886572,None,0.1075,-0.055,1,0,0,response3disk,0.004275731858797371,None,189.26962078886572,None,189.26962078886572,None,189.28706808999414,None,189.28706808999414,None,189.28706808999414,None,189.28706808999414,None,189.28706808999414,None,189.28706808999414,None,189.28706808999414,None,189.28706808999414,None,0.01375,-0.02375,1,0,0,rectangle,0.012998707767110318,None,189.28706808999414,None,189.28706808999414,None,189.28706808999414,None,,001,2020_Oct_12_1220,Simcolourproject_2stim_asymm_v1,2020.1.2,59.92106658474667,
6,9,PF,0,45,45,45,189.77162517997203,190.03703961300198,189.77162517997203,None,190.28796740999678,None,190.28796740999678,None,190.28796740999678,None,190.28796740999678,None,190.28796740999678,None,190.28796740999678,None,190.28796740999678,None,190.28796740999678,None,0.105,0.03375,1,0,0,response1disk,0.015564977948088199,None,190.28796740999678,None,190.28796740999678,None,190.7705840789131,None,190.7705840789131,None,190.7705840789131,None,190.7705840789131,None,190.7705840789131,None,190.7705840789131,None,190.7705840789131,None,190.7705840789131,None,0.105,0.03375,1,0,0,response1disk,0.005072215921245515,None,190.7705840789131,None,190.7705840789131,None,190.78700134897372,None,190.78700134897372,None,190.78700134897372,None,190.78700134897372,None,190.78700134897372,None,190.78700134897372,None,190.78700134897372,None,190.78700134897372,None,-0.00375,-0.015,1,0,0,rectangle,0.014157196856103837,None,190.78700134897372,None,190.78700134897372,None,190.78700134897372,None,,001,2020_Oct_12_1220,Simcolourproject_2stim_asymm_v1,2020.1.2,59.92106658474667,
6,1,PF,0,46,46,46,191.4401481189998,191.70471817697398,191.4401481189998,None,191.95501306199003,None,191.95501306199003,None,191.95501306199003,None,191.95501306199003,None,191.95501306199003,None,191.95501306199003,None,191.95501306199003,None,191.95501306199003,None,0.03625,-0.10125,1,0,0,response3disk,0.015627983899321407,None,191.95501306199003,None,191.95501306199003,None,192.27112103288528,None,192.27112103288528,None,192.27112103288528,None,192.27112103288528,None,192.27112103288528,None,192.27112103288528,None,192.27112103288528,None,192.27112103288528,None,0.03625,-0.10125,1,0,0,response3disk,0.005643424927257001,None,192.27112103288528,None,192.27112103288528,None,192.28763274400262,None,192.28763274400262,None,192.28763274400262,None,192.28763274400262,None,192.28763274400262,None,192.28763274400262,None,192.28763274400262,None,192.28763274400262,None,0.005,-0.00875,1,0,0,rectangle,0.014591263781767339,None,192.28763274400262,None,192.28763274400262,None,192.28763274400262,None,,001,2020_Oct_12_1220,Simcolourproject_2stim_asymm_v1,2020.1.2,59.92106658474667,
3,6,PF,0,47,47,47,192.70593006396666,192.9713887940161,192.70593006396666,None,193.2224402279826,None,193.2224402279826,None,193.2224402279826,None,193.2224402279826,None,193.2224402279826,None,193.2224402279826,None,193.2224402279826,None,193.2224402279826,None,-0.0775,0.02625,1,0,0,response7disk,0.015620328893419355,None,193.2224402279826,None,193.2224402279826,None,193.77225556387566,None,193.77225556387566,None,193.77225556387566,None,193.77225556387566,None,193.77225556387566,None,193.77225556387566,None,193.77225556387566,None,193.77225556387566,None,-0.0775,0.02625,1,0,0,response7disk,0.004074550874065608,None,193.77225556387566,None,193.77225556387566,None,193.79040583601454,None,193.79040583601454,None,193.79040583601454,None,193.79040583601454,None,193.79040583601454,None,193.79040583601454,None,193.79040583601454,None,193.79040583601454,None,-0.02125,-0.00625,1,0,0,rectangle,0.012529351748526096,None,193.79040583601454,None,193.79040583601454,None,193.79040583601454,None,,001,2020_Oct_12_1220,Simcolourproject_2stim_asymm_v1,2020.1.2,59.92106658474667,
8,8,FF,0,48,48,48,194.2574772479711,194.522408645018,194.2574772479711,None,194.77467111998703,None,194.77467111998703,None,194.77467111998703,None,194.77467111998703,None,194.77467111998703,None,194.77467111998703,None,194.77467111998703,None,194.77467111998703,None,0.1175,-0.0825,1,0,0,response3disk,0.015765582909807563,None,194.77467111998703,None,194.77467111998703,None,195.10576700989623,None,195.10576700989623,None,195.10576700989623,None,195.10576700989623,None,195.10576700989623,None,195.10576700989623,None,195.10576700989623,None,195.10576700989623,None,0.1175,-0.0825,1,0,0,response3disk,0.005151841847691685,None,195.10576700989623,None,195.10576700989623,None,195.12260324298404,None,195.12260324298404,None,195.12260324298404,None,195.12260324298404,None,195.12260324298404,None,195.12260324298404,None,195.12260324298404,None,195.12260324298404,None,0.03125,-0.03125,1,0,0,rectangle,0.014007242803927511,None,195.12260324298404,None,195.12260324298404,None,195.12260324298404,None,,001,2020_Oct_12_1220,Simcolourproject_2stim_asymm_v1,2020.1.2,59.92106658474667,
4,5,PF,0,49,49,49,195.55793624802027,195.82297545002075,195.55793624802027,None,196.07252702501137,None,196.07252702501137,None,196.07252702501137,None,196.07252702501137,None,196.07252702501137,None,196.07252702501137,None,196.07252702501137,None,196.07252702501137,None,0.04125,-0.125,1,0,0,response3disk,0.015624998894054443,None,196.07252702501137,None,196.07252702501137,None,196.45688495290233,None,196.45688495290233,None,196.45688495290233,None,196.45688495290233,None,196.45688495290233,None,196.45688495290233,None,196.45688495290233,None,196.45688495290233,None,0.04125,-0.125,1,0,0,response3disk,0.005198160884901881,None,196.45688495290233,None,196.45688495290233,None,196.473341814999,None,196.473341814999,None,196.473341814999,None,196.473341814999,None,196.473341814999,None,196.473341814999,None,196.473341814999,None,196.473341814999,None,-0.01625,-0.01375,1,0,0,rectangle,0.014343448739964515,None,196.473341814999,None,196.473341814999,None,196.473341814999,None,,001,2020_Oct_12_1220,Simcolourproject_2stim_asymm_v1,2020.1.2,59.92106658474667,
6,7,PF,0,50,50,50,196.94197005202295,197.2069817269803,196.94197005202295,None,197.45631504699122,None,197.45631504699122,None,197.45631504699122,None,197.45631504699122,None,197.45631504699122,None,197.45631504699122,None,197.45631504699122,None,197.45631504699122,None,-0.04375,-0.0975,1,0,0,response5disk,0.015629779896698892,None,197.45631504699122,None,197.45631504699122,None,198.47381331591168,None,198.47381331591168,None,198.47381331591168,None,198.47381331591168,None,198.47381331591168,None,198.47381331591168,None,198.47381331591168,None,198.47381331591168,None,-0.04375,-0.09875,1,0,0,response5disk,0.004155333910603076,None,198.47381331591168,None,198.47381331591168,None,198.49316356901545,None,198.49316356901545,None,198.49316356901545,None,198.49316356901545,None,198.49316356901545,None,198.49316356901545,None,198.49316356901545,None,198.49316356901545,None,0.0,0.00625,1,0,0,rectangle,0.011319933808408678,None,198.49316356901545,None,198.49316356901545,None,198.49316356901545,None,,001,2020_Oct_12_1220,Simcolourproject_2stim_asymm_v1,2020.1.2,59.92106658474667,
7,7,PF,0,51,51,51,198.9263023189851,199.1911320160143,198.9263023189851,None,199.4407661589794,None,199.4407661589794,None,199.4407661589794,None,199.4407661589794,None,199.4407661589794,None,199.4407661589794,None,199.4407661589794,None,199.4407661589794,None,-0.03625,0.08625,1,0,0,response7disk,0.015626456937752664,None,199.4407661589794,None,199.4407661589794,None,200.35814397287322,None,200.35814397287322,None,200.35814397287322,None,200.35814397287322,None,200.35814397287322,None,200.35814397287322,None,200.35814397287322,None,200.35814397287322,None,-0.03625,0.08625,1,0,0,response7disk,0.004242478869855404,None,200.35814397287322,None,200.35814397287322,None,200.3758383480017,None,200.3758383480017,None,200.3758383480017,None,200.3758383480017,None,200.3758383480017,None,200.3758383480017,None,200.3758383480017,None,200.3758383480017,None,-0.01375,-0.03,1,0,0,rectangle,0.013014487805776298,None,200.3758383480017,None,200.3758383480017,None,200.3758383480017,None,,001,2020_Oct_12_1220,Simcolourproject_2stim_asymm_v1,2020.1.2,59.92106658474667,
2,8,PF,0,52,52,52,200.74319789296715,201.00880929100094,200.74319789296715,None,201.24414027901366,None,201.24414027901366,None,201.24414027901366,None,201.24414027901366,None,201.24414027901366,None,201.24414027901366,None,201.24414027901366,None,201.24414027901366,None,0.02625,-0.12875,1,0,0,response3disk,0.015339963894803077,None,201.24414027901366,None,201.24414027901366,None,201.5290921619162,None,201.5290921619162,None,201.5290921619162,None,201.5290921619162,None,201.5290921619162,None,201.5290921619162,None,201.5290921619162,None,201.5290921619162,None,0.02625,-0.12875,1,0,0,response3disk,0.005431343917734921,None,201.5290921619162,None,201.5290921619162,None,201.54583020997234,None,201.54583020997234,None,201.54583020997234,None,201.54583020997234,None,201.54583020997234,None,201.54583020997234,None,201.54583020997234,None,201.54583020997234,None,-0.0075,-0.01125,1,0,0,rectangle,0.014563575852662325,None,201.54583020997234,None,201.54583020997234,None,201.54583020997234,None,,001,2020_Oct_12_1220,Simcolourproject_2stim_asymm_v1,2020.1.2,59.92106658474667,
7,1,PF,0,53,53,53,202.46235722798156,202.7259653719957,202.46235722798156,None,202.97685355501017,None,202.97685355501017,None,202.97685355501017,None,202.97685355501017,None,202.97685355501017,None,202.97685355501017,None,202.97685355501017,None,202.97685355501017,None,0.095,0.0325,1,0,0,response1disk,0.015688957937527448,None,202.97685355501017,None,202.97685355501017,None,203.42759603192098,None,203.42759603192098,None,203.42759603192098,None,203.42759603192098,None,203.42759603192098,None,203.42759603192098,None,203.42759603192098,None,203.42759603192098,None,0.095,0.0325,1,0,0,response1disk,0.0038943319232203066,None,203.42759603192098,None,203.42759603192098,None,203.4600253580138,None,203.4600253580138,None,203.4600253580138,None,203.4600253580138,None,203.4600253580138,None,203.4600253580138,None,203.4600253580138,None,203.4600253580138,None,-0.005,-0.01125,1,0,0,rectangle,0.01005057489965111,None,203.4600253580138,None,203.4600253580138,None,203.4600253580138,None,,001,2020_Oct_12_1220,Simcolourproject_2stim_asymm_v1,2020.1.2,59.92106658474667,
5,4,PF,0,54,54,54,203.94565405201865,204.2108322660206,203.94565405201865,None,204.4608418539865,None,204.4608418539865,None,204.4608418539865,None,204.4608418539865,None,204.4608418539865,None,204.4608418539865,None,204.4608418539865,None,204.4608418539865,None,0.07125,-0.05875,1,0,0,response3disk,0.015624836960341781,None,204.4608418539865,None,204.4608418539865,None,204.8936893758946,None,204.8936893758946,None,204.8936893758946,None,204.8936893758946,None,204.8936893758946,None,204.8936893758946,None,204.8936893758946,None,204.8936893758946,None,0.07125,-0.05875,1,0,0,response3disk,0.004754472873173654,None,204.8936893758946,None,204.8936893758946,None,204.91042753198417,None,204.91042753198417,None,204.91042753198417,None,204.91042753198417,None,204.91042753198417,None,204.91042753198417,None,204.91042753198417,None,204.91042753198417,None,-0.0075,-0.0275,1,0,0,rectangle,0.013741199858486652,None,204.91042753198417,None,204.91042753198417,None,204.91042753198417,None,,001,2020_Oct_12_1220,Simcolourproject_2stim_asymm_v1,2020.1.2,59.92106658474667,
5,2,FF,0,55,55,55,205.39620228100102,205.6609394539846,205.39620228100102,None,205.91133572900435,None,205.91133572900435,None,205.91133572900435,None,205.91133572900435,None,205.91133572900435,None,205.91133572900435,None,205.91133572900435,None,205.91133572900435,None,0.03125,-0.12625,1,0,0,response3disk,0.015769715944770724,None,205.91133572900435,None,205.91133572900435,None,206.3277637459105,None,206.3277637459105,None,206.3277637459105,None,206.3277637459105,None,206.3277637459105,None,206.3277637459105,None,206.3277637459105,None,206.3277637459105,None,0.03125,-0.12625,1,0,0,response3disk,0.0051245809881947935,None,206.3277637459105,None,206.3277637459105,None,206.34421380399726,None,206.34421380399726,None,206.34421380399726,None,206.34421380399726,None,206.34421380399726,None,206.34421380399726,None,206.34421380399726,None,206.34421380399726,None,-0.02,-0.0175,1,0,0,rectangle,0.014159980812110007,None,206.34421380399726,None,206.34421380399726,None,206.34421380399726,None,,001,2020_Oct_12_1220,Simcolourproject_2stim_asymm_v1,2020.1.2,59.92106658474667,
6,4,FF,0,56,56,56,206.94655136298388,207.1946682209964,206.94655136298388,None,207.46125014597783,None,207.46125014597783,None,207.46125014597783,None,207.46125014597783,None,207.46125014597783,None,207.46125014597783,None,207.46125014597783,None,207.46125014597783,None,-0.04625,-0.13375,1,0,0,response5disk,0.015599317906890064,None,207.46125014597783,None,207.46125014597783,None,207.87819985486567,None,207.87819985486567,None,207.87819985486567,None,207.87819985486567,None,207.87819985486567,None,207.87819985486567,None,207.87819985486567,None,207.87819985486567,None,-0.04625,-0.13375,1,0,0,response5disk,0.0042920358828268945,None,207.87819985486567,None,207.87819985486567,None,207.89555771800224,None,207.89555771800224,None,207.89555771800224,None,207.89555771800224,None,207.89555771800224,None,207.89555771800224,None,207.89555771800224,None,207.89555771800224,None,0.00625,-0.01,1,0,0,rectangle,0.0133484837715514,None,207.89555771800224,None,207.89555771800224,None,207.89555771800224,None,,001,2020_Oct_12_1220,Simcolourproject_2stim_asymm_v1,2020.1.2,59.92106658474667,
8,1,PF,0,57,57,57,208.44800141797168,208.71208992798347,208.44800141797168,None,208.96268113999395,None,208.96268113999395,None,208.96268113999395,None,208.96268113999395,None,208.96268113999395,None,208.96268113999395,None,208.96268113999395,None,208.96268113999395,None,-0.0975,-0.085,1,0,0,response5disk,0.015624821942765266,None,208.96268113999395,None,208.96268113999395,None,209.67946984886657,None,209.67946984886657,None,209.67946984886657,None,209.67946984886657,None,209.67946984886657,None,209.67946984886657,None,209.67946984886657,None,209.67946984886657,None,-0.0975,-0.085,1,0,0,response5disk,0.005214915901888162,None,209.67946984886657,None,209.67946984886657,None,209.69651670899475,None,209.69651670899475,None,209.69651670899475,None,209.69651670899475,None,209.69651670899475,None,209.69651670899475,None,209.69651670899475,None,209.69651670899475,None,0.01,-0.01875,1,0,0,rectangle,0.013575978751759976,None,209.69651670899475,None,209.69651670899475,None,209.69651670899475,None,,001,2020_Oct_12_1220,Simcolourproject_2stim_asymm_v1,2020.1.2,59.92106658474667,
1,6,FF,0,58,58,58,210.21502276998945,210.479773227009,210.21502276998945,None,210.7304799539852,None,210.7304799539852,None,210.7304799539852,None,210.7304799539852,None,210.7304799539852,None,210.7304799539852,None,210.7304799539852,None,210.7304799539852,None,0.06375,-0.135,1,0,0,response3disk,0.015795045881532133,None,210.7304799539852,None,210.7304799539852,None,211.04643108590972,None,211.04643108590972,None,211.04643108590972,None,211.04643108590972,None,211.04643108590972,None,211.04643108590972,None,211.04643108590972,None,211.04643108590972,None,0.06375,-0.135,1,0,0,response3disk,0.005281487945467234,None,211.04643108590972,None,211.04643108590972,None,211.0648211989901,None,211.0648211989901,None,211.0648211989901,None,211.0648211989901,None,211.0648211989901,None,211.0648211989901,None,211.0648211989901,None,211.0648211989901,None,0.0075,-0.02375,1,0,0,rectangle,0.012189216853585094,None,211.0648211989901,None,211.0648211989901,None,211.0648211989901,None,,001,2020_Oct_12_1220,Simcolourproject_2stim_asymm_v1,2020.1.2,59.92106658474667,
6,5,PF,0,59,59,59,211.61589137697592,211.88038262398914,211.61589137697592,None,212.13090183900204,None,212.13090183900204,None,212.13090183900204,None,212.13090183900204,None,212.13090183900204,None,212.13090183900204,None,212.13090183900204,None,212.13090183900204,None,0.1175,-0.09,1,0,0,response3disk,0.015608128916937858,None,212.13090183900204,None,212.13090183900204,None,212.48089134588372,None,212.48089134588372,None,212.48089134588372,None,212.48089134588372,None,212.48089134588372,None,212.48089134588372,None,212.48089134588372,None,212.48089134588372,None,0.1175,-0.09,1,0,0,response3disk,0.0054913078784011304,None,212.48089134588372,None,212.48089134588372,None,212.49925012601307,None,212.49925012601307,None,212.49925012601307,None,212.49925012601307,None,212.49925012601307,None,212.49925012601307,None,212.49925012601307,None,212.49925012601307,None,0.0,-0.0125,1,0,0,rectangle,0.012507662759162486,None,212.49925012601307,None,212.49925012601307,None,212.49925012601307,None,,001,2020_Oct_12_1220,Simcolourproject_2stim_asymm_v1,2020.1.2,59.92106658474667,
9,4,FF,0,60,60,60,212.93319254100788,213.19773401098792,212.93319254100788,None,213.44814517599298,None,213.44814517599298,None,213.44814517599298,None,213.44814517599298,None,213.44814517599298,None,213.44814517599298,None,213.44814517599298,None,213.44814517599298,None,-0.09625,0.0525,1,0,0,response7disk,0.01563066092785448,None,213.44814517599298,None,213.44814517599298,None,214.28161317290505,None,214.28161317290505,None,214.28161317290505,None,214.28161317290505,None,214.28161317290505,None,214.28161317290505,None,214.28161317290505,None,214.28161317290505,None,-0.09625,0.0525,1,0,0,response7disk,0.005010563938412815,None,214.28161317290505,None,214.28161317290505,None,214.3010805529775,None,214.3010805529775,None,214.3010805529775,None,214.3010805529775,None,214.3010805529775,None,214.3010805529775,None,214.3010805529775,None,214.3010805529775,None,0.03,-0.02875,1,0,0,rectangle,0.011311308771837503,None,214.3010805529775,None,214.3010805529775,None,214.3010805529775,None,,001,2020_Oct_12_1220,Simcolourproject_2stim_asymm_v1,2020.1.2,59.92106658474667,
5,9,FF,0,61,61,61,214.78278193698497,215.04836667800555,214.78278193698497,None,215.28327241598163,None,215.28327241598163,None,215.28327241598163,None,215.28327241598163,None,215.28327241598163,None,215.28327241598163,None,215.28327241598163,None,215.28327241598163,None,0.04375,-0.12,1,0,0,response3disk,0.015781749913003296,None,215.28327241598163,None,215.28327241598163,None,215.61534868186573,None,215.61534868186573,None,215.61534868186573,None,215.61534868186573,None,215.61534868186573,None,215.61534868186573,None,215.61534868186573,None,215.61534868186573,None,0.04375,-0.12,1,0,0,response3disk,0.003057408903259784,None,215.61534868186573,None,215.61534868186573,None,215.63437307800632,None,215.63437307800632,None,215.63437307800632,None,215.63437307800632,None,215.63437307800632,None,215.63437307800632,None,215.63437307800632,None,215.63437307800632,None,0.01625,-0.01875,1,0,0,rectangle,0.01164815976517275,None,215.63437307800632,None,215.63437307800632,None,215.63437307800632,None,,001,2020_Oct_12_1220,Simcolourproject_2stim_asymm_v1,2020.1.2,59.92106658474667,
2,8,FF,0,62,62,62,216.06787596200593,216.3160340450122,216.06787596200593,None,216.58275692997267,None,216.58275692997267,None,216.58275692997267,None,216.58275692997267,None,216.58275692997267,None,216.58275692997267,None,216.58275692997267,None,216.58275692997267,None,0.05625,-0.11125,1,0,0,response3disk,0.015627013868652284,None,216.58275692997267,None,216.58275692997267,None,216.88217037392315,None,216.88217037392315,None,216.88217037392315,None,216.88217037392315,None,216.88217037392315,None,216.88217037392315,None,216.88217037392315,None,216.88217037392315,None,0.05625,-0.11125,1,0,0,response3disk,0.00383650790899992,None,216.88217037392315,None,216.88217037392315,None,216.90220518701244,None,216.90220518701244,None,216.90220518701244,None,216.90220518701244,None,216.90220518701244,None,216.90220518701244,None,216.90220518701244,None,216.90220518701244,None,0.00125,-0.0125,1,0,0,rectangle,0.01076253579230979,None,216.90220518701244,None,216.90220518701244,None,216.90220518701244,None,,001,2020_Oct_12_1220,Simcolourproject_2stim_asymm_v1,2020.1.2,59.92106658474667,
,,,,,,,217.8187672669883,218.08328195399372,217.8187672669883,None,,,,,,,,,,,,,,,,,,,,,,,,,,,,,,,,,,,,,,,,,,,,,,,,,,,,,,,,,,,,,,,,,,,,,,,,,,,,,,,,,,,,,,,,,,,,,
