Colour_1,Colour_2,Ecc,trials.thisRepN,trials.thisTrialN,trials.thisN,trials.thisIndex,Circle_1.started,Circle_1.stopped,centre_cross4.started,centre_cross4.stopped,response1disk.started,response1disk.stopped,response2disk.started,response2disk.stopped,response3disk.started,response3disk.stopped,response4disk.started,response4disk.stopped,response5disk.started,response5disk.stopped,response6disk.started,response6disk.stopped,response7disk.started,response7disk.stopped,response8disk.started,response8disk.stopped,mouse.x,mouse.y,mouse.leftButton,mouse.midButton,mouse.rightButton,mouse.clicked_name,mouse.started,mouse.stopped,Circle_2.started,Circle_2.stopped,text_23.started,text_23.stopped,response1disk_3.started,response1disk_3.stopped,response2disk_3.started,response2disk_3.stopped,response3disk_3.started,response3disk_3.stopped,response4disk_3.started,response4disk_3.stopped,response5disk_3.started,response5disk_3.stopped,response6disk_3.started,response6disk_3.stopped,response7disk_3.started,response7disk_3.stopped,response8disk_3.started,response8disk_3.stopped,mouse_3.x,mouse_3.y,mouse_3.leftButton,mouse_3.midButton,mouse_3.rightButton,mouse_3.clicked_name,mouse_3.started,mouse_3.stopped,text_26.started,text_26.stopped,rectangle_2.started,rectangle_2.stopped,response1disk_2.started,response1disk_2.stopped,response2disk_2.started,response2disk_2.stopped,response3disk_2.started,response3disk_2.stopped,response4disk_2.started,response4disk_2.stopped,response5disk_2.started,response5disk_2.stopped,response6disk_2.started,response6disk_2.stopped,response7disk_2.started,response7disk_2.stopped,response8disk_2.started,response8disk_2.stopped,mouse_2.x,mouse_2.y,mouse_2.leftButton,mouse_2.midButton,mouse_2.rightButton,mouse_2.clicked_name,mouse_2.started,mouse_2.stopped,rectangle.started,rectangle.stopped,text_25.started,text_25.stopped,text_24.started,text_24.stopped,participant,session,date,expName,psychopyVersion,frameRate,
6,6,PF,0,0,0,0,67.05776100896765,67.32255618897034,67.05776100896765,None,67.55562617100077,None,67.55562617100077,None,67.55562617100077,None,67.55562617100077,None,67.55562617100077,None,67.55562617100077,None,67.55562617100077,None,67.55562617100077,None,-0.0525,-0.115,1,0,0,response5disk,0.01521988253807649,None,67.55562617100077,None,67.55562617100077,None,None,None,None,None,None,None,None,None,None,None,None,None,None,None,None,None,-0.0525,-0.115,1,0,0,response5disk,None,None,None,None,None,None,69.08995597797912,None,69.08995597797912,None,69.08995597797912,None,69.08995597797912,None,69.08995597797912,None,69.08995597797912,None,69.08995597797912,None,69.08995597797912,None,-0.0175,0.0025,1,0,0,rectangle,0.008066125505138189,None,69.08995597797912,None,69.08995597797912,None,69.08995597797912,None,,001,2020_Oct_12_1244,Simcolourproject_2stim_asymm_v1,2020.1.2,59.89609224891794,
1,3,PF,0,1,1,1,69.43984713795362,69.68964745895937,69.43984713795362,None,69.94045136298519,None,69.94045136298519,None,69.94045136298519,None,69.94045136298519,None,69.94045136298519,None,69.94045136298519,None,69.94045136298519,None,69.94045136298519,None,0.0525,-0.09125,1,0,0,response3disk,0.015654322516638786,None,69.94045136298519,None,69.94045136298519,None,None,None,None,None,None,None,None,None,None,None,None,None,None,None,None,None,0.0525,-0.09125,1,0,0,response3disk,None,None,None,None,None,None,70.35988995595835,None,70.35988995595835,None,70.35988995595835,None,70.35988995595835,None,70.35988995595835,None,70.35988995595835,None,70.35988995595835,None,70.35988995595835,None,0.0175,-0.01,1,0,0,rectangle,0.01199765398632735,None,70.35988995595835,None,70.35988995595835,None,70.35988995595835,None,,001,2020_Oct_12_1244,Simcolourproject_2stim_asymm_v1,2020.1.2,59.89609224891794,
1,2,FF,0,2,2,2,70.70961607800564,70.97402460698504,70.70961607800564,None,71.22522659599781,None,71.22522659599781,None,71.22522659599781,None,71.22522659599781,None,71.22522659599781,None,71.22522659599781,None,71.22522659599781,None,71.22522659599781,None,0.0525,0.08625,1,0,0,response1disk,0.01578930055256933,None,71.22522659599781,None,71.22522659599781,None,None,None,None,None,None,None,None,None,None,None,None,None,None,None,None,None,0.0525,0.08625,1,0,0,response1disk,None,None,None,None,None,None,71.59512118599378,None,71.59512118599378,None,71.59512118599378,None,71.59512118599378,None,71.59512118599378,None,71.59512118599378,None,71.59512118599378,None,71.59512118599378,None,0.00375,0.0075,1,0,0,rectangle,0.010803053912241012,None,71.59512118599378,None,71.59512118599378,None,71.59512118599378,None,,001,2020_Oct_12_1244,Simcolourproject_2stim_asymm_v1,2020.1.2,59.89609224891794,
3,8,PF,0,3,3,3,71.99405807896983,72.25740854395553,71.99405807896983,None,72.50899665697943,None,72.50899665697943,None,72.50899665697943,None,72.50899665697943,None,72.50899665697943,None,72.50899665697943,None,72.50899665697943,None,72.50899665697943,None,0.1,-0.06,1,0,0,response3disk,0.015396338538266718,None,72.50899665697943,None,72.50899665697943,None,None,None,None,None,None,None,None,None,None,None,None,None,None,None,None,None,0.1,-0.06,1,0,0,response3disk,None,None,None,None,None,None,72.99173739895923,None,72.99173739895923,None,72.99173739895923,None,72.99173739895923,None,72.99173739895923,None,72.99173739895923,None,72.99173739895923,None,72.99173739895923,None,0.0025,-0.0175,1,0,0,rectangle,0.010360869928263128,None,72.99173739895923,None,72.99173739895923,None,72.99173739895923,None,,001,2020_Oct_12_1244,Simcolourproject_2stim_asymm_v1,2020.1.2,59.89609224891794,
3,3,PF,0,4,4,4,73.39503660198534,73.6589583879686,73.39503660198534,None,73.90879557997687,None,73.90879557997687,None,73.90879557997687,None,73.90879557997687,None,73.90879557997687,None,73.90879557997687,None,73.90879557997687,None,73.90879557997687,None,0.07125,-0.15875,1,0,0,response3disk,0.015644744504243135,None,73.90879557997687,None,73.90879557997687,None,None,None,None,None,None,None,None,None,None,None,None,None,None,None,None,None,0.07125,-0.15875,1,0,0,response3disk,None,None,None,None,None,None,74.2253354259883,None,74.2253354259883,None,74.2253354259883,None,74.2253354259883,None,74.2253354259883,None,74.2253354259883,None,74.2253354259883,None,74.2253354259883,None,0.00625,-0.01125,1,0,0,rectangle,0.00022444553906098008,None,74.2253354259883,None,74.2253354259883,None,74.2253354259883,None,,001,2020_Oct_12_1244,Simcolourproject_2stim_asymm_v1,2020.1.2,59.89609224891794,
6,1,FF,0,5,5,5,74.65860675100703,74.90881952899508,74.65860675100703,None,75.15993846900528,None,75.15993846900528,None,75.15993846900528,None,75.15993846900528,None,75.15993846900528,None,75.15993846900528,None,75.15993846900528,None,75.15993846900528,None,-0.045,-0.11375,1,0,0,response5disk,0.015779830515384674,None,75.15993846900528,None,75.15993846900528,None,None,None,None,None,None,None,None,None,None,None,None,None,None,None,None,None,-0.045,-0.11375,1,0,0,response5disk,None,None,None,None,None,None,75.50968702597311,None,75.50968702597311,None,75.50968702597311,None,75.50968702597311,None,75.50968702597311,None,75.50968702597311,None,75.50968702597311,None,75.50968702597311,None,0.0225,0.0275,1,0,0,rectangle,0.01205538894282654,None,75.50968702597311,None,75.50968702597311,None,75.50968702597311,None,,001,2020_Oct_12_1244,Simcolourproject_2stim_asymm_v1,2020.1.2,59.89609224891794,
9,8,FF,0,6,6,6,76.21193425898673,76.47625628695823,76.21193425898673,None,76.72752164496342,None,76.72752164496342,None,76.72752164496342,None,76.72752164496342,None,76.72752164496342,None,76.72752164496342,None,76.72752164496342,None,76.72752164496342,None,-0.10875,-0.04875,1,0,0,response5disk,0.015650268527679145,None,76.72752164496342,None,76.72752164496342,None,None,None,None,None,None,None,None,None,None,None,None,None,None,None,None,None,-0.10875,-0.04875,1,0,0,response5disk,None,None,None,None,None,None,77.2134914729977,None,77.2134914729977,None,77.2134914729977,None,77.2134914729977,None,77.2134914729977,None,77.2134914729977,None,77.2134914729977,None,77.2134914729977,None,-0.00125,0.02625,1,0,0,rectangle,0.012020965979900211,None,77.2134914729977,None,77.2134914729977,None,77.2134914729977,None,,001,2020_Oct_12_1244,Simcolourproject_2stim_asymm_v1,2020.1.2,59.89609224891794,
5,7,FF,0,7,7,7,77.61249154998222,77.87752899195766,77.61249154998222,None,78.12875049596187,None,78.12875049596187,None,78.12875049596187,None,78.12875049596187,None,78.12875049596187,None,78.12875049596187,None,78.12875049596187,None,78.12875049596187,None,0.06625,-0.11625,1,0,0,response3disk,0.015705080528277904,None,78.12875049596187,None,78.12875049596187,None,None,None,None,None,None,None,None,None,None,None,None,None,None,None,None,None,0.06625,-0.11625,1,0,0,response3disk,None,None,None,None,None,None,78.56093650095863,None,78.56093650095863,None,78.56093650095863,None,78.56093650095863,None,78.56093650095863,None,78.56093650095863,None,78.56093650095863,None,78.56093650095863,None,0.02625,-0.0175,1,0,0,rectangle,0.009125354001298547,None,78.56093650095863,None,78.56093650095863,None,78.56093650095863,None,,001,2020_Oct_12_1244,Simcolourproject_2stim_asymm_v1,2020.1.2,59.89609224891794,
5,4,FF,0,8,8,8,78.94436947896611,79.19446468196111,78.94436947896611,None,79.44586161896586,None,79.44586161896586,None,79.44586161896586,None,79.44586161896586,None,79.44586161896586,None,79.44586161896586,None,79.44586161896586,None,79.44586161896586,None,0.11875,-0.08375,1,0,0,response3disk,0.015724017517641187,None,79.44586161896586,None,79.44586161896586,None,None,None,None,None,None,None,None,None,None,None,None,None,None,None,None,None,0.11875,-0.08375,1,0,0,response3disk,None,None,None,None,None,None,79.88393892598106,None,79.88393892598106,None,79.88393892598106,None,79.88393892598106,None,79.88393892598106,None,79.88393892598106,None,79.88393892598106,None,79.88393892598106,None,0.0325,-0.01625,1,0,0,rectangle,0.010910480981692672,None,79.88393892598106,None,79.88393892598106,None,79.88393892598106,None,,001,2020_Oct_12_1244,Simcolourproject_2stim_asymm_v1,2020.1.2,59.89609224891794,
2,1,PF,0,9,9,9,80.31172360596247,80.56194615399,80.31172360596247,None,80.81301578698913,None,80.81301578698913,None,80.81301578698913,None,80.81301578698913,None,80.81301578698913,None,80.81301578698913,None,80.81301578698913,None,80.81301578698913,None,0.0525,-0.09875,1,0,0,response3disk,0.015644484548829496,None,80.81301578698913,None,80.81301578698913,None,None,None,None,None,None,None,None,None,None,None,None,None,None,None,None,None,0.0525,-0.09875,1,0,0,response3disk,None,None,None,None,None,None,81.09845759900054,None,81.09845759900054,None,81.09845759900054,None,81.09845759900054,None,81.09845759900054,None,81.09845759900054,None,81.09845759900054,None,81.09845759900054,None,-0.00875,-0.00125,1,0,0,rectangle,0.012012433027848601,None,81.09845759900054,None,81.09845759900054,None,81.09845759900054,None,,001,2020_Oct_12_1244,Simcolourproject_2stim_asymm_v1,2020.1.2,59.89609224891794,
7,9,PF,0,10,10,10,81.48109948995989,81.74519038799917,81.48109948995989,None,81.99664607696468,None,81.99664607696468,None,81.99664607696468,None,81.99664607696468,None,81.99664607696468,None,81.99664607696468,None,81.99664607696468,None,81.99664607696468,None,-0.0475,-0.09125,1,0,0,response5disk,0.01580247253878042,None,81.99664607696468,None,81.99664607696468,None,None,None,None,None,None,None,None,None,None,None,None,None,None,None,None,None,-0.0475,-0.09125,1,0,0,response5disk,None,None,None,None,None,None,82.31642090698006,None,82.31642090698006,None,82.31642090698006,None,82.31642090698006,None,82.31642090698006,None,82.31642090698006,None,82.31642090698006,None,82.31642090698006,None,0.0025,0.01125,1,0,0,rectangle,0.012699613987933844,None,82.31642090698006,None,82.31642090698006,None,82.31642090698006,None,,001,2020_Oct_12_1244,Simcolourproject_2stim_asymm_v1,2020.1.2,59.89609224891794,
9,2,FF,0,11,11,11,82.69550821499433,82.94642076798482,82.69550821499433,None,83.19863465498202,None,83.19863465498202,None,83.19863465498202,None,83.19863465498202,None,83.19863465498202,None,83.19863465498202,None,83.19863465498202,None,83.19863465498202,None,0.09875,0.04875,1,0,0,response1disk,0.01547594350995496,None,83.19863465498202,None,83.19863465498202,None,None,None,None,None,None,None,None,None,None,None,None,None,None,None,None,None,0.09875,0.04875,1,0,0,response1disk,None,None,None,None,None,None,83.68393563496647,None,83.68393563496647,None,83.68393563496647,None,83.68393563496647,None,83.68393563496647,None,83.68393563496647,None,83.68393563496647,None,83.68393563496647,None,0.0075,-0.00625,1,0,0,rectangle,0.011670372972730547,None,83.68393563496647,None,83.68393563496647,None,83.68393563496647,None,,001,2020_Oct_12_1244,Simcolourproject_2stim_asymm_v1,2020.1.2,59.89609224891794,
5,6,FF,0,12,12,12,84.067776262993,84.33015614899341,84.067776262993,None,84.58170084899757,None,84.58170084899757,None,84.58170084899757,None,84.58170084899757,None,84.58170084899757,None,84.58170084899757,None,84.58170084899757,None,84.58170084899757,None,-0.0325,-0.09375,1,0,0,response5disk,0.0157479535555467,None,84.58170084899757,None,84.58170084899757,None,None,None,None,None,None,None,None,None,None,None,None,None,None,None,None,None,-0.0325,-0.09375,1,0,0,response5disk,None,None,None,None,None,None,85.36446915398119,None,85.36446915398119,None,85.36446915398119,None,85.36446915398119,None,85.36446915398119,None,85.36446915398119,None,85.36446915398119,None,85.36446915398119,None,0.02125,0.0025,1,0,0,rectangle,0.010638070991262794,None,85.36446915398119,None,85.36446915398119,None,85.36446915398119,None,,001,2020_Oct_12_1244,Simcolourproject_2stim_asymm_v1,2020.1.2,59.89609224891794,
4,2,FF,0,13,13,13,85.76480103499489,86.01582422398496,85.76480103499489,None,86.26635099900886,None,86.26635099900886,None,86.26635099900886,None,86.26635099900886,None,86.26635099900886,None,86.26635099900886,None,86.26635099900886,None,86.26635099900886,None,0.0525,-0.1175,1,0,0,response3disk,0.015655594528652728,None,86.26635099900886,None,86.26635099900886,None,None,None,None,None,None,None,None,None,None,None,None,None,None,None,None,None,0.0525,-0.1175,1,0,0,response3disk,None,None,None,None,None,None,86.66501880995929,None,86.66501880995929,None,86.66501880995929,None,86.66501880995929,None,86.66501880995929,None,86.66501880995929,None,86.66501880995929,None,86.66501880995929,None,0.0025,-0.01375,1,0,0,rectangle,0.00875231297686696,None,86.66501880995929,None,86.66501880995929,None,86.66501880995929,None,,001,2020_Oct_12_1244,Simcolourproject_2stim_asymm_v1,2020.1.2,59.89609224891794,
2,2,PF,0,14,14,14,87.69985705299769,87.96572375996038,87.69985705299769,None,88.21512174000964,None,88.21512174000964,None,88.21512174000964,None,88.21512174000964,None,88.21512174000964,None,88.21512174000964,None,88.21512174000964,None,88.21512174000964,None,-0.03875,0.0775,1,0,0,response7disk,0.015944411512464285,None,88.21512174000964,None,88.21512174000964,None,None,None,None,None,None,None,None,None,None,None,None,None,None,None,None,None,-0.03875,0.0775,1,0,0,response7disk,None,None,None,None,None,None,88.80045372800669,None,88.80045372800669,None,88.80045372800669,None,88.80045372800669,None,88.80045372800669,None,88.80045372800669,None,88.80045372800669,None,88.80045372800669,None,-0.00875,-0.00125,1,0,0,rectangle,0.013944789941888303,None,88.80045372800669,None,88.80045372800669,None,88.80045372800669,None,,001,2020_Oct_12_1244,Simcolourproject_2stim_asymm_v1,2020.1.2,59.89609224891794,
1,9,PF,0,15,15,15,89.27085093397181,89.53396932396572,89.27085093397181,None,89.78382229700219,None,89.78382229700219,None,89.78382229700219,None,89.78382229700219,None,89.78382229700219,None,89.78382229700219,None,89.78382229700219,None,89.78382229700219,None,-0.05375,-0.105,1,0,0,response5disk,0.015359300596173853,None,89.78382229700219,None,89.78382229700219,None,None,None,None,None,None,None,None,None,None,None,None,None,None,None,None,None,-0.05375,-0.105,1,0,0,response5disk,None,None,None,None,None,None,90.21643353195395,None,90.21643353195395,None,90.21643353195395,None,90.21643353195395,None,90.21643353195395,None,90.21643353195395,None,90.21643353195395,None,90.21643353195395,None,0.01375,-0.00875,1,0,0,rectangle,0.0005228505469858646,None,90.21643353195395,None,90.21643353195395,None,90.21643353195395,None,,001,2020_Oct_12_1244,Simcolourproject_2stim_asymm_v1,2020.1.2,59.89609224891794,
5,8,FF,0,16,16,16,90.60235027497401,90.86687013495248,90.60235027497401,None,91.11692546698032,None,91.11692546698032,None,91.11692546698032,None,91.11692546698032,None,91.11692546698032,None,91.11692546698032,None,91.11692546698032,None,91.11692546698032,None,0.045,-0.12625,1,0,0,response3disk,0.015582945488858968,None,91.11692546698032,None,91.11692546698032,None,None,None,None,None,None,None,None,None,None,None,None,None,None,None,None,None,0.045,-0.12625,1,0,0,response3disk,None,None,None,None,None,None,91.40045636997093,None,91.40045636997093,None,91.40045636997093,None,91.40045636997093,None,91.40045636997093,None,91.40045636997093,None,91.40045636997093,None,91.40045636997093,None,-0.00125,-0.0125,1,0,0,rectangle,0.014440023980569094,None,91.40045636997093,None,91.40045636997093,None,91.40045636997093,None,,001,2020_Oct_12_1244,Simcolourproject_2stim_asymm_v1,2020.1.2,59.89609224891794,
9,9,FF,0,17,17,17,91.81875844695605,92.08424141199794,91.81875844695605,None,92.33572446595645,None,92.33572446595645,None,92.33572446595645,None,92.33572446595645,None,92.33572446595645,None,92.33572446595645,None,92.33572446595645,None,92.33572446595645,None,0.0975,-0.0575,1,0,0,response3disk,0.0151605035061948,None,92.33572446595645,None,92.33572446595645,None,None,None,None,None,None,None,None,None,None,None,None,None,None,None,None,None,0.0975,-0.0575,1,0,0,response3disk,None,None,None,None,None,None,92.65141322399722,None,92.65141322399722,None,92.65141322399722,None,92.65141322399722,None,92.65141322399722,None,92.65141322399722,None,92.65141322399722,None,92.65141322399722,None,0.01,-0.00875,1,0,0,rectangle,0.014162542996928096,None,92.65141322399722,None,92.65141322399722,None,92.65141322399722,None,,001,2020_Oct_12_1244,Simcolourproject_2stim_asymm_v1,2020.1.2,59.89609224891794,
6,7,FF,0,18,18,18,93.02097997698002,93.28494095400674,93.02097997698002,None,93.53476277395384,None,93.53476277395384,None,93.53476277395384,None,93.53476277395384,None,93.53476277395384,None,93.53476277395384,None,93.53476277395384,None,93.53476277395384,None,0.06,-0.10875,1,0,0,response3disk,0.015553838573396206,None,93.53476277395384,None,93.53476277395384,None,None,None,None,None,None,None,None,None,None,None,None,None,None,None,None,None,0.06,-0.10875,1,0,0,response3disk,None,None,None,None,None,None,93.75082055595703,None,93.75082055595703,None,93.75082055595703,None,93.75082055595703,None,93.75082055595703,None,93.75082055595703,None,93.75082055595703,None,93.75082055595703,None,0.01625,-0.00375,1,0,0,rectangle,0.014694865036290139,None,93.75082055595703,None,93.75082055595703,None,93.75082055595703,None,,001,2020_Oct_12_1244,Simcolourproject_2stim_asymm_v1,2020.1.2,59.89609224891794,
5,5,FF,0,19,19,19,94.11902213195572,94.36847126099747,94.11902213195572,None,94.62247576395748,None,94.62247576395748,None,94.62247576395748,None,94.62247576395748,None,94.62247576395748,None,94.62247576395748,None,94.62247576395748,None,94.62247576395748,None,0.09375,0.03,1,0,0,response1disk,0.014887912489939481,None,94.62247576395748,None,94.62247576395748,None,None,None,None,None,None,None,None,None,None,None,None,None,None,None,None,None,0.09375,0.03,1,0,0,response1disk,None,None,None,None,None,None,94.95116363099078,None,94.95116363099078,None,94.95116363099078,None,94.95116363099078,None,94.95116363099078,None,94.95116363099078,None,94.95116363099078,None,94.95116363099078,None,-0.00375,-0.01,1,0,0,rectangle,0.014701948966830969,None,94.95116363099078,None,94.95116363099078,None,94.95116363099078,None,,001,2020_Oct_12_1244,Simcolourproject_2stim_asymm_v1,2020.1.2,59.89609224891794,
8,1,FF,0,20,20,20,95.33700123295421,95.60216562799178,95.33700123295421,None,95.85292077600025,None,95.85292077600025,None,95.85292077600025,None,95.85292077600025,None,95.85292077600025,None,95.85292077600025,None,95.85292077600025,None,95.85292077600025,None,-0.04375,-0.12125,1,0,0,response5disk,0.01558990852208808,None,95.85292077600025,None,95.85292077600025,None,None,None,None,None,None,None,None,None,None,None,None,None,None,None,None,None,-0.04375,-0.12125,1,0,0,response5disk,None,None,None,None,None,None,96.15267467097146,None,96.15267467097146,None,96.15267467097146,None,96.15267467097146,None,96.15267467097146,None,96.15267467097146,None,96.15267467097146,None,96.15267467097146,None,-0.02125,-0.005,1,0,0,rectangle,0.015416177920997143,None,96.15267467097146,None,96.15267467097146,None,96.15267467097146,None,,001,2020_Oct_12_1244,Simcolourproject_2stim_asymm_v1,2020.1.2,59.89609224891794,
6,3,FF,0,21,21,21,96.50492991798092,96.76996646000771,96.50492991798092,None,97.01939830498304,None,97.01939830498304,None,97.01939830498304,None,97.01939830498304,None,97.01939830498304,None,97.01939830498304,None,97.01939830498304,None,97.01939830498304,None,-0.09875,-0.04,1,0,0,response5disk,0.015585729503072798,None,97.01939830498304,None,97.01939830498304,None,None,None,None,None,None,None,None,None,None,None,None,None,None,None,None,None,-0.09875,-0.04,1,0,0,response5disk,None,None,None,None,None,None,97.35298631998012,None,97.35298631998012,None,97.35298631998012,None,97.35298631998012,None,97.35298631998012,None,97.35298631998012,None,97.35298631998012,None,97.35298631998012,None,-0.00375,0.005,1,0,0,rectangle,0.014459319994784892,None,97.35298631998012,None,97.35298631998012,None,97.35298631998012,None,,001,2020_Oct_12_1244,Simcolourproject_2stim_asymm_v1,2020.1.2,59.89609224891794,
8,2,FF,0,22,22,22,97.9543110569939,98.22046579397283,97.9543110569939,None,98.45335864997469,None,98.45335864997469,None,98.45335864997469,None,98.45335864997469,None,98.45335864997469,None,98.45335864997469,None,98.45335864997469,None,98.45335864997469,None,-0.05375,0.07625,1,0,0,response7disk,0.015415538451634347,None,98.45335864997469,None,98.45335864997469,None,None,None,None,None,None,None,None,None,None,None,None,None,None,None,None,None,-0.05375,0.0775,1,0,0,response7disk,None,None,None,None,None,None,98.87043745198753,None,98.87043745198753,None,98.87043745198753,None,98.87043745198753,None,98.87043745198753,None,98.87043745198753,None,98.87043745198753,None,98.87043745198753,None,0.0,0.005,1,0,0,rectangle,0.000715863483492285,None,98.87043745198753,None,98.87043745198753,None,98.87043745198753,None,,001,2020_Oct_12_1244,Simcolourproject_2stim_asymm_v1,2020.1.2,59.89609224891794,
8,7,PF,0,23,23,23,99.37294826901052,99.63739069900475,99.37294826901052,None,99.88752836897038,None,99.88752836897038,None,99.88752836897038,None,99.88752836897038,None,99.88752836897038,None,99.88752836897038,None,99.88752836897038,None,99.88752836897038,None,0.09375,-0.06625,1,0,0,response3disk,0.015676304523367435,None,99.88752836897038,None,99.88752836897038,None,None,None,None,None,None,None,None,None,None,None,None,None,None,None,None,None,0.09375,-0.06625,1,0,0,response3disk,None,None,None,None,None,None,100.17177993396763,None,100.17177993396763,None,100.17177993396763,None,100.17177993396763,None,100.17177993396763,None,100.17177993396763,None,100.17177993396763,None,100.17177993396763,None,-0.0225,-0.00875,1,0,0,rectangle,0.0007518684724345803,None,100.17177993396763,None,100.17177993396763,None,100.17177993396763,None,,001,2020_Oct_12_1244,Simcolourproject_2stim_asymm_v1,2020.1.2,59.89609224891794,
1,2,PF,0,24,24,24,100.74030563095585,101.00485248799669,100.74030563095585,None,101.25437924900325,None,101.25437924900325,None,101.25437924900325,None,101.25437924900325,None,101.25437924900325,None,101.25437924900325,None,101.25437924900325,None,101.25437924900325,None,0.06625,-0.12375,1,0,0,response3disk,0.01530358853051439,None,101.25437924900325,None,101.25437924900325,None,None,None,None,None,None,None,None,None,None,None,None,None,None,None,None,None,0.06625,-0.12375,1,0,0,response3disk,None,None,None,None,None,None,101.79089038597886,None,101.79089038597886,None,101.79089038597886,None,101.79089038597886,None,101.79089038597886,None,101.79089038597886,None,101.79089038597886,None,101.79089038597886,None,0.005,-0.00625,1,0,0,rectangle,0.011646505969110876,None,101.79089038597886,None,101.79089038597886,None,101.79089038597886,None,,001,2020_Oct_12_1244,Simcolourproject_2stim_asymm_v1,2020.1.2,59.89609224891794,
5,3,FF,0,25,25,25,102.22143670398509,102.47208846797002,102.22143670398509,None,102.7230315330089,None,102.7230315330089,None,102.7230315330089,None,102.7230315330089,None,102.7230315330089,None,102.7230315330089,None,102.7230315330089,None,102.7230315330089,None,-0.03125,-0.12125,1,0,0,response5disk,0.015587645524647087,None,102.7230315330089,None,102.7230315330089,None,None,None,None,None,None,None,None,None,None,None,None,None,None,None,None,None,-0.03125,-0.12125,1,0,0,response5disk,None,None,None,None,None,None,103.10681656497763,None,103.10681656497763,None,103.10681656497763,None,103.10681656497763,None,103.10681656497763,None,103.10681656497763,None,103.10681656497763,None,103.10681656497763,None,0.0,-0.01375,1,0,0,rectangle,0.013919719494879246,None,103.10681656497763,None,103.10681656497763,None,103.10681656497763,None,,001,2020_Oct_12_1244,Simcolourproject_2stim_asymm_v1,2020.1.2,59.89609224891794,
6,3,PF,0,26,26,26,103.52490418299567,103.7897393029998,103.52490418299567,None,104.03993981296662,None,104.03993981296662,None,104.03993981296662,None,104.03993981296662,None,104.03993981296662,None,104.03993981296662,None,104.03993981296662,None,104.03993981296662,None,-0.08375,-0.06,1,0,0,response5disk,0.015773013525176793,None,104.03993981296662,None,104.03993981296662,None,None,None,None,None,None,None,None,None,None,None,None,None,None,None,None,None,-0.08375,-0.06,1,0,0,response5disk,None,None,None,None,None,None,104.37382831296418,None,104.37382831296418,None,104.37382831296418,None,104.37382831296418,None,104.37382831296418,None,104.37382831296418,None,104.37382831296418,None,104.37382831296418,None,0.00125,-0.00625,1,0,0,rectangle,0.013186620955821127,None,104.37382831296418,None,104.37382831296418,None,104.37382831296418,None,,001,2020_Oct_12_1244,Simcolourproject_2stim_asymm_v1,2020.1.2,59.89609224891794,
1,8,FF,0,27,27,27,104.7924623019644,105.05649258499034,104.7924623019644,None,105.30642443499528,None,105.30642443499528,None,105.30642443499528,None,105.30642443499528,None,105.30642443499528,None,105.30642443499528,None,105.30642443499528,None,105.30642443499528,None,0.05875,-0.135,1,0,0,response3disk,0.01558477955404669,None,105.30642443499528,None,105.30642443499528,None,None,None,None,None,None,None,None,None,None,None,None,None,None,None,None,None,0.05875,-0.135,1,0,0,response3disk,None,None,None,None,None,None,105.62405258597573,None,105.62405258597573,None,105.62405258597573,None,105.62405258597573,None,105.62405258597573,None,105.62405258597573,None,105.62405258597573,None,105.62405258597573,None,0.0175,-0.0225,1,0,0,rectangle,0.015085732971783727,None,105.62405258597573,None,105.62405258597573,None,105.62405258597573,None,,001,2020_Oct_12_1244,Simcolourproject_2stim_asymm_v1,2020.1.2,59.89609224891794,
1,5,PF,0,28,28,28,106.04244108195417,106.30693446396617,106.04244108195417,None,106.55834154196782,None,106.55834154196782,None,106.55834154196782,None,106.55834154196782,None,106.55834154196782,None,106.55834154196782,None,106.55834154196782,None,106.55834154196782,None,-0.04,0.09375,1,0,0,response7disk,0.015223508526105434,None,106.55834154196782,None,106.55834154196782,None,None,None,None,None,None,None,None,None,None,None,None,None,None,None,None,None,-0.04,0.09375,1,0,0,response7disk,None,None,None,None,None,None,106.87462962098652,None,106.87462962098652,None,106.87462962098652,None,106.87462962098652,None,106.87462962098652,None,106.87462962098652,None,106.87462962098652,None,106.87462962098652,None,-0.00125,-0.005,1,0,0,rectangle,0.013557720987591892,None,106.87462962098652,None,106.87462962098652,None,106.87462962098652,None,,001,2020_Oct_12_1244,Simcolourproject_2stim_asymm_v1,2020.1.2,59.89609224891794,
7,6,PF,0,29,29,29,107.27709349099314,107.5413936660043,107.27709349099314,None,107.79215271398425,None,107.79215271398425,None,107.79215271398425,None,107.79215271398425,None,107.79215271398425,None,107.79215271398425,None,107.79215271398425,None,107.79215271398425,None,0.0875,-0.05125,1,0,0,response3disk,0.015588507463689893,None,107.79215271398425,None,107.79215271398425,None,None,None,None,None,None,None,None,None,None,None,None,None,None,None,None,None,0.0875,-0.05125,1,0,0,response3disk,None,None,None,None,None,None,108.09247099899221,None,108.09247099899221,None,108.09247099899221,None,108.09247099899221,None,108.09247099899221,None,108.09247099899221,None,108.09247099899221,None,108.09247099899221,None,0.01375,-0.0175,1,0,0,rectangle,0.013216545979958028,None,108.09247099899221,None,108.09247099899221,None,108.09247099899221,None,,001,2020_Oct_12_1244,Simcolourproject_2stim_asymm_v1,2020.1.2,59.89609224891794,
3,4,PF,0,30,30,30,108.51017384097213,108.77586909197271,108.51017384097213,None,109.02624978800304,None,109.02624978800304,None,109.02624978800304,None,109.02624978800304,None,109.02624978800304,None,109.02624978800304,None,109.02624978800304,None,109.02624978800304,None,0.08125,0.0275,1,0,0,response1disk,0.01559088850626722,None,109.02624978800304,None,109.02624978800304,None,None,None,None,None,None,None,None,None,None,None,None,None,None,None,None,None,0.08125,0.0275,1,0,0,response1disk,None,None,None,None,None,None,109.37626706599258,None,109.37626706599258,None,109.37626706599258,None,109.37626706599258,None,109.37626706599258,None,109.37626706599258,None,109.37626706599258,None,109.37626706599258,None,0.0025,-0.0075,1,0,0,rectangle,0.01307432196335867,None,109.37626706599258,None,109.37626706599258,None,109.37626706599258,None,,001,2020_Oct_12_1244,Simcolourproject_2stim_asymm_v1,2020.1.2,59.89609224891794,
7,6,FF,0,31,31,31,109.77890693000518,110.04231336497469,109.77890693000518,None,110.29312137298984,None,110.29312137298984,None,110.29312137298984,None,110.29312137298984,None,110.29312137298984,None,110.29312137298984,None,110.29312137298984,None,110.29312137298984,None,0.04625,-0.09375,1,0,0,response3disk,0.01563105348031968,None,110.29312137298984,None,110.29312137298984,None,None,None,None,None,None,None,None,None,None,None,None,None,None,None,None,None,0.04625,-0.09375,1,0,0,response3disk,None,None,None,None,None,None,110.51021801796742,None,110.51021801796742,None,110.51021801796742,None,110.51021801796742,None,110.51021801796742,None,110.51021801796742,None,110.51021801796742,None,110.51021801796742,None,0.0025,-0.02125,1,0,0,rectangle,0.014360238972585648,None,110.51021801796742,None,110.51021801796742,None,110.51021801796742,None,,001,2020_Oct_12_1244,Simcolourproject_2stim_asymm_v1,2020.1.2,59.89609224891794,
7,2,PF,0,32,32,32,110.92747200001031,111.17668849695474,110.92747200001031,None,111.45114762400044,None,111.45114762400044,None,111.45114762400044,None,111.45114762400044,None,111.45114762400044,None,111.45114762400044,None,111.45114762400044,None,111.45114762400044,None,-0.055,-0.11375,1,0,0,response5disk,0.015679733536671847,None,111.45114762400044,None,111.45114762400044,None,None,None,None,None,None,None,None,None,None,None,None,None,None,None,None,None,-0.055,-0.11375,1,0,0,response5disk,None,None,None,None,None,None,111.77674415695947,None,111.77674415695947,None,111.77674415695947,None,111.77674415695947,None,111.77674415695947,None,111.77674415695947,None,111.77674415695947,None,111.77674415695947,None,-0.005,-0.0125,1,0,0,rectangle,5.9587531723082066e-05,None,111.77674415695947,None,111.77674415695947,None,111.77674415695947,None,,001,2020_Oct_12_1244,Simcolourproject_2stim_asymm_v1,2020.1.2,59.89609224891794,
6,4,PF,0,33,33,33,112.21163539495319,112.4768841319601,112.21163539495319,None,112.72713307396043,None,112.72713307396043,None,112.72713307396043,None,112.72713307396043,None,112.72713307396043,None,112.72713307396043,None,112.72713307396043,None,112.72713307396043,None,0.0325,-0.11125,1,0,0,response3disk,0.015552134544122964,None,112.72713307396043,None,112.72713307396043,None,None,None,None,None,None,None,None,None,None,None,None,None,None,None,None,None,0.0325,-0.11125,1,0,0,response3disk,None,None,None,None,None,None,113.094893631991,None,113.094893631991,None,113.094893631991,None,113.094893631991,None,113.094893631991,None,113.094893631991,None,113.094893631991,None,113.094893631991,None,0.00875,-0.0225,1,0,0,rectangle,0.013748002937063575,None,113.094893631991,None,113.094893631991,None,113.094893631991,None,,001,2020_Oct_12_1244,Simcolourproject_2stim_asymm_v1,2020.1.2,59.89609224891794,
7,7,FF,0,34,34,34,113.49639997899067,113.76114583399612,113.49639997899067,None,114.01154456398217,None,114.01154456398217,None,114.01154456398217,None,114.01154456398217,None,114.01154456398217,None,114.01154456398217,None,114.01154456398217,None,114.01154456398217,None,-0.07375,-0.04125,1,0,0,response5disk,0.01585660455748439,None,114.01154456398217,None,114.01154456398217,None,None,None,None,None,None,None,None,None,None,None,None,None,None,None,None,None,-0.07375,-0.04125,1,0,0,response5disk,None,None,None,None,None,None,114.37853558600182,None,114.37853558600182,None,114.37853558600182,None,114.37853558600182,None,114.37853558600182,None,114.37853558600182,None,114.37853558600182,None,114.37853558600182,None,0.00625,-0.00125,1,0,0,rectangle,0.013421514013316482,None,114.37853558600182,None,114.37853558600182,None,114.37853558600182,None,,001,2020_Oct_12_1244,Simcolourproject_2stim_asymm_v1,2020.1.2,59.89609224891794,
4,8,FF,0,35,35,35,114.76378305099206,115.02843583095819,114.76378305099206,None,115.27932554099243,None,115.27932554099243,None,115.27932554099243,None,115.27932554099243,None,115.27932554099243,None,115.27932554099243,None,115.27932554099243,None,115.27932554099243,None,0.09625,-0.05125,1,0,0,response3disk,0.015097940573468804,None,115.27932554099243,None,115.27932554099243,None,None,None,None,None,None,None,None,None,None,None,None,None,None,None,None,None,0.09625,-0.05125,1,0,0,response3disk,None,None,None,None,None,None,115.47939688595943,None,115.47939688595943,None,115.47939688595943,None,115.47939688595943,None,115.47939688595943,None,115.47939688595943,None,115.47939688595943,None,115.47939688595943,None,0.04375,-0.01375,1,0,0,rectangle,0.012916509003844112,None,115.47939688595943,None,115.47939688595943,None,115.47939688595943,None,,001,2020_Oct_12_1244,Simcolourproject_2stim_asymm_v1,2020.1.2,59.89609224891794,
3,2,PF,0,36,36,36,115.86326035798993,116.12913664098596,115.86326035798993,None,116.3790790559724,None,116.3790790559724,None,116.3790790559724,None,116.3790790559724,None,116.3790790559724,None,116.3790790559724,None,116.3790790559724,None,116.3790790559724,None,0.04,-0.10375,1,0,0,response3disk,0.015793933533132076,None,116.3790790559724,None,116.3790790559724,None,None,None,None,None,None,None,None,None,None,None,None,None,None,None,None,None,0.04,-0.10375,1,0,0,response3disk,None,None,None,None,None,None,116.69534597499296,None,116.69534597499296,None,116.69534597499296,None,116.69534597499296,None,116.69534597499296,None,116.69534597499296,None,116.69534597499296,None,116.69534597499296,None,0.00125,-0.0025,1,0,0,rectangle,0.014930794015526772,None,116.69534597499296,None,116.69534597499296,None,116.69534597499296,None,,001,2020_Oct_12_1244,Simcolourproject_2stim_asymm_v1,2020.1.2,59.89609224891794,
8,6,FF,0,37,37,37,117.08075679995818,117.34572419000324,117.08075679995818,None,117.59740282496205,None,117.59740282496205,None,117.59740282496205,None,117.59740282496205,None,117.59740282496205,None,117.59740282496205,None,117.59740282496205,None,117.59740282496205,None,-0.04625,-0.1125,1,0,0,response5disk,0.015590537514071912,None,117.59740282496205,None,117.59740282496205,None,None,None,None,None,None,None,None,None,None,None,None,None,None,None,None,None,-0.04625,-0.1125,1,0,0,response5disk,None,None,None,None,None,None,117.91296679497464,None,117.91296679497464,None,117.91296679497464,None,117.91296679497464,None,117.91296679497464,None,117.91296679497464,None,117.91296679497464,None,117.91296679497464,None,-0.02375,0.01125,1,0,0,rectangle,0.01369584002532065,None,117.91296679497464,None,117.91296679497464,None,117.91296679497464,None,,001,2020_Oct_12_1244,Simcolourproject_2stim_asymm_v1,2020.1.2,59.89609224891794,
4,7,PF,0,38,38,38,118.31659786996897,118.57997337495908,118.31659786996897,None,118.83121066197054,None,118.83121066197054,None,118.83121066197054,None,118.83121066197054,None,118.83121066197054,None,118.83121066197054,None,118.83121066197054,None,118.83121066197054,None,0.0325,-0.095,1,0,0,response3disk,0.015282281499821693,None,118.83121066197054,None,118.83121066197054,None,None,None,None,None,None,None,None,None,None,None,None,None,None,None,None,None,0.0325,-0.095,1,0,0,response3disk,None,None,None,None,None,None,119.13083498697961,None,119.13083498697961,None,119.13083498697961,None,119.13083498697961,None,119.13083498697961,None,119.13083498697961,None,119.13083498697961,None,119.13083498697961,None,0.01,-0.005,1,0,0,rectangle,0.012902321061119437,None,119.13083498697961,None,119.13083498697961,None,119.13083498697961,None,,001,2020_Oct_12_1244,Simcolourproject_2stim_asymm_v1,2020.1.2,59.89609224891794,
2,9,PF,0,39,39,39,119.53307373897405,119.79746906395303,119.53307373897405,None,120.04752083698986,None,120.04752083698986,None,120.04752083698986,None,120.04752083698986,None,120.04752083698986,None,120.04752083698986,None,120.04752083698986,None,120.04752083698986,None,-0.03625,-0.09375,1,0,0,response5disk,0.015588130510877818,None,120.04752083698986,None,120.04752083698986,None,None,None,None,None,None,None,None,None,None,None,None,None,None,None,None,None,-0.03625,-0.09375,1,0,0,response5disk,None,None,None,None,None,None,120.33184500900097,None,120.33184500900097,None,120.33184500900097,None,120.33184500900097,None,120.33184500900097,None,120.33184500900097,None,120.33184500900097,None,120.33184500900097,None,0.00125,-0.00875,1,0,0,rectangle,0.01338943699374795,None,120.33184500900097,None,120.33184500900097,None,120.33184500900097,None,,001,2020_Oct_12_1244,Simcolourproject_2stim_asymm_v1,2020.1.2,59.89609224891794,
2,6,FF,0,40,40,40,120.76670927897794,121.03121338895289,120.76670927897794,None,121.28163802699419,None,121.28163802699419,None,121.28163802699419,None,121.28163802699419,None,121.28163802699419,None,121.28163802699419,None,121.28163802699419,None,121.28163802699419,None,0.03875,-0.1025,1,0,0,response3disk,0.01578791852807626,None,121.28163802699419,None,121.28163802699419,None,None,None,None,None,None,None,None,None,None,None,None,None,None,None,None,None,0.03875,-0.1025,1,0,0,response3disk,None,None,None,None,None,None,121.89826521096984,None,121.89826521096984,None,121.89826521096984,None,121.89826521096984,None,121.89826521096984,None,121.89826521096984,None,121.89826521096984,None,121.89826521096984,None,0.0025,-0.01,1,0,0,rectangle,0.015405998972710222,None,121.89826521096984,None,121.89826521096984,None,121.89826521096984,None,,001,2020_Oct_12_1244,Simcolourproject_2stim_asymm_v1,2020.1.2,59.89609224891794,
3,7,PF,0,41,41,41,122.46713991096476,122.7319934979896,122.46713991096476,None,122.98149196599843,None,122.98149196599843,None,122.98149196599843,None,122.98149196599843,None,122.98149196599843,None,122.98149196599843,None,122.98149196599843,None,122.98149196599843,None,-0.05125,0.075,1,0,0,response7disk,0.01576486451085657,None,122.98149196599843,None,122.98149196599843,None,123.44881554149325,None,123.44881554149325,None,123.44881554149325,None,123.44881554149325,None,123.44881554149325,None,123.44881554149325,None,123.44881554149325,None,123.44881554149325,None,-0.05125,0.075,1,0,0,response7disk,0.0056823595659807324,None,123.44881554149325,None,123.44881554149325,None,123.46486216800986,None,123.46486216800986,None,123.46486216800986,None,123.46486216800986,None,123.46486216800986,None,123.46486216800986,None,123.46486216800986,None,123.46486216800986,None,0.00125,-0.0125,1,0,0,rectangle,0.01460034801857546,None,123.46486216800986,None,123.46486216800986,None,123.46486216800986,None,,001,2020_Oct_12_1244,Simcolourproject_2stim_asymm_v1,2020.1.2,59.89609224891794,
8,9,PF,0,42,42,42,123.81873700296273,124.08274849998998,123.81873700296273,None,124.33371542795794,None,124.33371542795794,None,124.33371542795794,None,124.33371542795794,None,124.33371542795794,None,124.33371542795794,None,124.33371542795794,None,124.33371542795794,None,-0.075,0.03625,1,0,0,response7disk,0.015536161488853395,None,124.33371542795794,None,124.33371542795794,None,None,None,None,None,None,None,None,None,None,None,None,None,None,None,None,None,-0.075,0.03625,1,0,0,response7disk,None,None,None,None,None,None,124.58385134697892,None,124.58385134697892,None,124.58385134697892,None,124.58385134697892,None,124.58385134697892,None,124.58385134697892,None,124.58385134697892,None,124.58385134697892,None,-0.005,-0.0125,1,0,0,rectangle,0.012909722980111837,None,124.58385134697892,None,124.58385134697892,None,124.58385134697892,None,,001,2020_Oct_12_1244,Simcolourproject_2stim_asymm_v1,2020.1.2,59.89609224891794,
7,4,PF,0,43,43,43,124.90160274197115,125.16579205199378,124.90160274197115,None,125.41607802198268,None,125.41607802198268,None,125.41607802198268,None,125.41607802198268,None,125.41607802198268,None,125.41607802198268,None,125.41607802198268,None,125.41607802198268,None,0.115,-0.05875,1,0,0,response3disk,0.015586543537210673,None,125.41607802198268,None,125.41607802198268,None,None,None,None,None,None,None,None,None,None,None,None,None,None,None,None,None,0.115,-0.05875,1,0,0,response3disk,None,None,None,None,None,None,125.56683026498649,None,125.56683026498649,None,125.56683026498649,None,125.56683026498649,None,125.56683026498649,None,125.56683026498649,None,125.56683026498649,None,125.56683026498649,None,0.02,-0.00875,1,0,0,rectangle,0.013848480011802167,None,125.56683026498649,None,125.56683026498649,None,125.56683026498649,None,,001,2020_Oct_12_1244,Simcolourproject_2stim_asymm_v1,2020.1.2,59.89609224891794,
3,8,FF,0,44,44,44,125.95142766396748,126.21736835496267,125.95142766396748,None,126.45099909196142,None,126.45099909196142,None,126.45099909196142,None,126.45099909196142,None,126.45099909196142,None,126.45099909196142,None,126.45099909196142,None,126.45099909196142,None,0.05,-0.115,1,0,0,response3disk,0.015347516571637243,None,126.45099909196142,None,126.45099909196142,None,None,None,None,None,None,None,None,None,None,None,None,None,None,None,None,None,0.05,-0.115,1,0,0,response3disk,None,None,None,None,None,None,126.56649675400695,None,126.56649675400695,None,126.56649675400695,None,126.56649675400695,None,126.56649675400695,None,126.56649675400695,None,126.56649675400695,None,126.56649675400695,None,0.02375,-0.015,1,0,0,rectangle,0.014716746984049678,None,126.56649675400695,None,126.56649675400695,None,126.56649675400695,None,,001,2020_Oct_12_1244,Simcolourproject_2stim_asymm_v1,2020.1.2,59.89609224891794,
6,9,PF,0,45,45,45,126.93574464396806,127.20102163997944,126.93574464396806,None,127.45103033498162,None,127.45103033498162,None,127.45103033498162,None,127.45103033498162,None,127.45103033498162,None,127.45103033498162,None,127.45103033498162,None,127.45103033498162,None,-0.02625,-0.105,1,0,0,response5disk,0.015574835531879216,None,127.45103033498162,None,127.45103033498162,None,None,None,None,None,None,None,None,None,None,None,None,None,None,None,None,None,-0.02625,-0.105,1,0,0,response5disk,None,None,None,None,None,None,127.65150479995646,None,127.65150479995646,None,127.65150479995646,None,127.65150479995646,None,127.65150479995646,None,127.65150479995646,None,127.65150479995646,None,127.65150479995646,None,0.00125,-0.01875,1,0,0,rectangle,0.0043492119875736535,None,127.65150479995646,None,127.65150479995646,None,127.65150479995646,None,,001,2020_Oct_12_1244,Simcolourproject_2stim_asymm_v1,2020.1.2,59.89609224891794,
6,1,PF,0,46,46,46,128.0372596969828,128.3024611689616,128.0372596969828,None,128.55173406098038,None,128.55173406098038,None,128.55173406098038,None,128.55173406098038,None,128.55173406098038,None,128.55173406098038,None,128.55173406098038,None,128.55173406098038,None,0.0675,-0.1275,1,0,0,response3disk,0.01567078847438097,None,128.55173406098038,None,128.55173406098038,None,None,None,None,None,None,None,None,None,None,None,None,None,None,None,None,None,0.0675,-0.1275,1,0,0,response3disk,None,None,None,None,None,None,128.83820577996084,None,128.83820577996084,None,128.83820577996084,None,128.83820577996084,None,128.83820577996084,None,128.83820577996084,None,128.83820577996084,None,128.83820577996084,None,0.00375,0.00125,1,0,0,rectangle,0.014454138989094645,None,128.83820577996084,None,128.83820577996084,None,128.83820577996084,None,,001,2020_Oct_12_1244,Simcolourproject_2stim_asymm_v1,2020.1.2,59.89609224891794,
3,6,PF,0,47,47,47,129.15183323598467,129.40155021095416,129.15183323598467,None,129.65239897597348,None,129.65239897597348,None,129.65239897597348,None,129.65239897597348,None,129.65239897597348,None,129.65239897597348,None,129.65239897597348,None,129.65239897597348,None,0.11125,-0.06125,1,0,0,response3disk,0.01543890155153349,None,129.65239897597348,None,129.65239897597348,None,None,None,None,None,None,None,None,None,None,None,None,None,None,None,None,None,0.11125,-0.06125,1,0,0,response3disk,None,None,None,None,None,None,129.91837268997915,None,129.91837268997915,None,129.91837268997915,None,129.91837268997915,None,129.91837268997915,None,129.91837268997915,None,129.91837268997915,None,129.91837268997915,None,0.04,-0.01125,1,0,0,rectangle,0.014170771988574415,None,129.91837268997915,None,129.91837268997915,None,129.91837268997915,None,,001,2020_Oct_12_1244,Simcolourproject_2stim_asymm_v1,2020.1.2,59.89609224891794,
8,8,FF,0,48,48,48,130.33880957000656,130.60336273600115,130.33880957000656,None,130.85235959797865,None,130.85235959797865,None,130.85235959797865,None,130.85235959797865,None,130.85235959797865,None,130.85235959797865,None,130.85235959797865,None,130.85235959797865,None,0.05125,-0.1275,1,0,0,response3disk,0.015563130495138466,None,130.85235959797865,None,130.85235959797865,None,None,None,None,None,None,None,None,None,None,None,None,None,None,None,None,None,0.05125,-0.1275,1,0,0,response3disk,None,None,None,None,None,None,130.91861657297704,None,130.91861657297704,None,130.91861657297704,None,130.91861657297704,None,130.91861657297704,None,130.91861657297704,None,130.91861657297704,None,130.91861657297704,None,0.00125,0.005,1,0,0,rectangle,0.014866209938190877,None,130.91861657297704,None,130.91861657297704,None,130.91861657297704,None,,001,2020_Oct_12_1244,Simcolourproject_2stim_asymm_v1,2020.1.2,59.89609224891794,
4,5,PF,0,49,49,49,131.3211033589905,131.58667970995884,131.3211033589905,None,131.838223979983,None,131.838223979983,None,131.838223979983,None,131.838223979983,None,131.838223979983,None,131.838223979983,None,131.838223979983,None,131.838223979983,None,-0.0475,-0.10625,1,0,0,response5disk,0.015572289528790861,None,131.838223979983,None,131.838223979983,None,None,None,None,None,None,None,None,None,None,None,None,None,None,None,None,None,-0.0475,-0.10625,1,0,0,response5disk,None,None,None,None,None,None,133.02002666395856,None,133.02002666395856,None,133.02002666395856,None,133.02002666395856,None,133.02002666395856,None,133.02002666395856,None,133.02002666395856,None,133.02002666395856,None,-0.01875,0.005,1,0,0,rectangle,0.013672347995452583,None,133.02002666395856,None,133.02002666395856,None,133.02002666395856,None,,001,2020_Oct_12_1244,Simcolourproject_2stim_asymm_v1,2020.1.2,59.89609224891794,
6,7,PF,0,50,50,50,133.38872839900432,133.65367195900762,133.38872839900432,None,133.90316778898705,None,133.90316778898705,None,133.90316778898705,None,133.90316778898705,None,133.90316778898705,None,133.90316778898705,None,133.90316778898705,None,133.90316778898705,None,0.05875,-0.135,1,0,0,response3disk,0.01556033658562228,None,133.90316778898705,None,133.90316778898705,None,134.68730669596698,None,134.68730669596698,None,134.68730669596698,None,134.68730669596698,None,134.68730669596698,None,134.68730669596698,None,134.68730669596698,None,134.68730669596698,None,-0.02375,0.02125,1,0,0,response7disk,0.008494396577589214,None,134.68730669596698,None,134.68730669596698,None,134.9876375090098,None,134.9876375090098,None,134.9876375090098,None,134.9876375090098,None,134.9876375090098,None,134.9876375090098,None,134.9876375090098,None,134.9876375090098,None,0.025,0.0125,1,0,0,rectangle,0.003944531548768282,None,134.9876375090098,None,134.9876375090098,None,134.9876375090098,None,,001,2020_Oct_12_1244,Simcolourproject_2stim_asymm_v1,2020.1.2,59.89609224891794,
7,7,PF,0,51,51,51,138.607813420007,138.87301283498527,138.607813420007,None,139.1236020399956,None,139.1236020399956,None,139.1236020399956,None,139.1236020399956,None,139.1236020399956,None,139.1236020399956,None,139.1236020399956,None,139.1236020399956,None,0.0325,-0.09625,1,0,0,response3disk,0.015585148532409221,None,139.1236020399956,None,139.1236020399956,None,None,None,None,None,None,None,None,None,None,None,None,None,None,None,None,None,0.0325,-0.09625,1,0,0,response3disk,None,None,None,None,None,None,139.4565480639576,None,139.4565480639576,None,139.4565480639576,None,139.4565480639576,None,139.4565480639576,None,139.4565480639576,None,139.4565480639576,None,139.4565480639576,None,0.0175,-0.0075,1,0,0,rectangle,0.0007267374894581735,None,139.4565480639576,None,139.4565480639576,None,139.4565480639576,None,,001,2020_Oct_12_1244,Simcolourproject_2stim_asymm_v1,2020.1.2,59.89609224891794,
2,8,PF,0,52,52,52,140.10844488395378,140.37391374300933,140.10844488395378,None,140.62480345298536,None,140.62480345298536,None,140.62480345298536,None,140.62480345298536,None,140.62480345298536,None,140.62480345298536,None,140.62480345298536,None,140.62480345298536,None,-0.05875,-0.1025,1,0,0,response5disk,0.015505728486459702,None,140.62480345298536,None,140.62480345298536,None,None,None,None,None,None,None,None,None,None,None,None,None,None,None,None,None,-0.05875,-0.1025,1,0,0,response5disk,None,None,None,None,None,None,158.68299535498954,None,158.68299535498954,None,158.68299535498954,None,158.68299535498954,None,158.68299535498954,None,158.68299535498954,None,158.68299535498954,None,158.68299535498954,None,0.0125,-0.00875,1,0,0,rectangle,0.013669929001480341,None,158.68299535498954,None,158.68299535498954,None,158.68299535498954,None,,001,2020_Oct_12_1244,Simcolourproject_2stim_asymm_v1,2020.1.2,59.89609224891794,
7,1,PF,0,53,53,53,159.0506752670044,159.31574577995343,159.0506752670044,None,159.54963185300585,None,159.54963185300585,None,159.54963185300585,None,159.54963185300585,None,159.54963185300585,None,159.54963185300585,None,159.54963185300585,None,159.54963185300585,None,-0.03625,0.07125,1,0,0,response7disk,0.015756743494421244,None,159.54963185300585,None,159.54963185300585,None,None,None,None,None,None,None,None,None,None,None,None,None,None,None,None,None,-0.03625,0.07125,1,0,0,response7disk,None,None,None,None,None,None,159.91585369198583,None,159.91585369198583,None,159.91585369198583,None,159.91585369198583,None,159.91585369198583,None,159.91585369198583,None,159.91585369198583,None,159.91585369198583,None,-0.00125,-0.01125,1,0,0,rectangle,0.013763743976596743,None,159.91585369198583,None,159.91585369198583,None,159.91585369198583,None,,001,2020_Oct_12_1244,Simcolourproject_2stim_asymm_v1,2020.1.2,59.89609224891794,
5,4,PF,0,54,54,54,160.80229882895947,161.06634840095649,160.80229882895947,None,161.31672971096123,None,161.31672971096123,None,161.31672971096123,None,161.31672971096123,None,161.31672971096123,None,161.31672971096123,None,161.31672971096123,None,161.31672971096123,None,0.1325,-0.05,1,0,0,response3disk,0.015586911526042968,None,161.31672971096123,None,161.31672971096123,None,None,None,None,None,None,None,None,None,None,None,None,None,None,None,None,None,0.1325,-0.05,1,0,0,response3disk,None,None,None,None,None,None,162.48382664599922,None,162.48382664599922,None,162.48382664599922,None,162.48382664599922,None,162.48382664599922,None,162.48382664599922,None,162.48382664599922,None,162.48382664599922,None,0.025,-0.00375,1,0,0,rectangle,0.015794065955560654,None,162.48382664599922,None,162.48382664599922,None,162.48382664599922,None,,001,2020_Oct_12_1244,Simcolourproject_2stim_asymm_v1,2020.1.2,59.89609224891794,
5,2,FF,0,55,55,55,163.3191902259714,163.5840276379604,163.3191902259714,None,163.83499573299196,None,163.83499573299196,None,163.83499573299196,None,163.83499573299196,None,163.83499573299196,None,163.83499573299196,None,163.83499573299196,None,163.83499573299196,None,0.06125,-0.13375,1,0,0,response3disk,0.015546890499535948,None,163.83499573299196,None,163.83499573299196,None,None,None,None,None,None,None,None,None,None,None,None,None,None,None,None,None,0.06125,-0.13375,1,0,0,response3disk,None,None,None,None,None,None,164.15122594300192,None,164.15122594300192,None,164.15122594300192,None,164.15122594300192,None,164.15122594300192,None,164.15122594300192,None,164.15122594300192,None,164.15122594300192,None,0.01375,-0.03,1,0,0,rectangle,0.01417641097214073,None,164.15122594300192,None,164.15122594300192,None,164.15122594300192,None,,001,2020_Oct_12_1244,Simcolourproject_2stim_asymm_v1,2020.1.2,59.89609224891794,
6,4,FF,0,56,56,56,164.7362152269925,165.00172651995672,164.7362152269925,None,165.2524204569636,None,165.2524204569636,None,165.2524204569636,None,165.2524204569636,None,165.2524204569636,None,165.2524204569636,None,165.2524204569636,None,165.2524204569636,None,-0.04,-0.125,1,0,0,response5disk,0.015565358567982912,None,165.2524204569636,None,165.2524204569636,None,None,None,None,None,None,None,None,None,None,None,None,None,None,None,None,None,-0.04,-0.125,1,0,0,response5disk,None,None,None,None,None,None,165.668469147,None,165.668469147,None,165.668469147,None,165.668469147,None,165.668469147,None,165.668469147,None,165.668469147,None,165.668469147,None,-0.00125,-0.0375,1,0,0,rectangle,0.01382383395684883,None,165.668469147,None,165.668469147,None,165.668469147,None,,001,2020_Oct_12_1244,Simcolourproject_2stim_asymm_v1,2020.1.2,59.89609224891794,
8,1,PF,0,57,57,57,166.2517768300022,166.5026791919954,166.2517768300022,None,166.75269791699247,None,166.75269791699247,None,166.75269791699247,None,166.75269791699247,None,166.75269791699247,None,166.75269791699247,None,166.75269791699247,None,166.75269791699247,None,0.0475,-0.10625,1,0,0,response3disk,0.01556412351783365,None,166.75269791699247,None,166.75269791699247,None,None,None,None,None,None,None,None,None,None,None,None,None,None,None,None,None,0.0475,-0.10625,1,0,0,response3disk,None,None,None,None,None,None,167.33578870398924,None,167.33578870398924,None,167.33578870398924,None,167.33578870398924,None,167.33578870398924,None,167.33578870398924,None,167.33578870398924,None,167.33578870398924,None,0.00375,-0.015,1,0,0,rectangle,0.016482419974636286,None,167.33578870398924,None,167.33578870398924,None,167.33578870398924,None,,001,2020_Oct_12_1244,Simcolourproject_2stim_asymm_v1,2020.1.2,59.89609224891794,
1,6,FF,0,58,58,58,167.80279901897302,168.05311704898486,167.80279901897302,None,168.30361027398612,None,168.30361027398612,None,168.30361027398612,None,168.30361027398612,None,168.30361027398612,None,168.30361027398612,None,168.30361027398612,None,168.30361027398612,None,-0.03375,-0.11125,1,0,0,response5disk,0.015731601510196924,None,168.30361027398612,None,168.30361027398612,None,None,None,None,None,None,None,None,None,None,None,None,None,None,None,None,None,-0.03375,-0.11125,1,0,0,response5disk,None,None,None,None,None,None,170.23741774295922,None,170.23741774295922,None,170.23741774295922,None,170.23741774295922,None,170.23741774295922,None,170.23741774295922,None,170.23741774295922,None,170.23741774295922,None,-0.00875,-0.0025,1,0,0,rectangle,0.014124751964118332,None,170.23741774295922,None,170.23741774295922,None,170.23741774295922,None,,001,2020_Oct_12_1244,Simcolourproject_2stim_asymm_v1,2020.1.2,59.89609224891794,
6,5,PF,0,59,59,59,170.90607089496916,171.17133305000607,170.90607089496916,None,171.42160333995707,None,171.42160333995707,None,171.42160333995707,None,171.42160333995707,None,171.42160333995707,None,171.42160333995707,None,171.42160333995707,None,171.42160333995707,None,-0.11,-0.045,1,0,0,response5disk,0.015565800538752228,None,171.42160333995707,None,171.42160333995707,None,None,None,None,None,None,None,None,None,None,None,None,None,None,None,None,None,-0.11,-0.045,1,0,0,response5disk,None,None,None,None,None,None,171.90575669996906,None,171.90575669996906,None,171.90575669996906,None,171.90575669996906,None,171.90575669996906,None,171.90575669996906,None,171.90575669996906,None,171.90575669996906,None,-0.01375,-0.01,1,0,0,rectangle,0.01403122500050813,None,171.90575669996906,None,171.90575669996906,None,171.90575669996906,None,,001,2020_Oct_12_1244,Simcolourproject_2stim_asymm_v1,2020.1.2,59.89609224891794,
9,4,FF,0,60,60,60,172.59017530700658,172.85507515596692,172.59017530700658,None,173.10578768898267,None,173.10578768898267,None,173.10578768898267,None,173.10578768898267,None,173.10578768898267,None,173.10578768898267,None,173.10578768898267,None,173.10578768898267,None,0.03125,-0.1225,1,0,0,response3disk,0.01554619352100417,None,173.10578768898267,None,173.10578768898267,None,None,None,None,None,None,None,None,None,None,None,None,None,None,None,None,None,0.03125,-0.1225,1,0,0,response3disk,None,None,None,None,None,None,173.82331470196368,None,173.82331470196368,None,173.82331470196368,None,173.82331470196368,None,173.82331470196368,None,173.82331470196368,None,173.82331470196368,None,173.82331470196368,None,0.00375,-0.015,1,0,0,rectangle,0.014850956969894469,None,173.82331470196368,None,173.82331470196368,None,173.82331470196368,None,,001,2020_Oct_12_1244,Simcolourproject_2stim_asymm_v1,2020.1.2,59.89609224891794,
5,9,FF,0,61,61,61,174.54239067900926,174.80612101097358,174.54239067900926,None,175.0566967089544,None,175.0566967089544,None,175.0566967089544,None,175.0566967089544,None,175.0566967089544,None,175.0566967089544,None,175.0566967089544,None,175.0566967089544,None,0.04125,-0.105,1,0,0,response3disk,0.015579131548292935,None,175.0566967089544,None,175.0566967089544,None,None,None,None,None,None,None,None,None,None,None,None,None,None,None,None,None,0.04125,-0.105,1,0,0,response3disk,None,None,None,None,None,None,175.54010114597622,None,175.54010114597622,None,175.54010114597622,None,175.54010114597622,None,175.54010114597622,None,175.54010114597622,None,175.54010114597622,None,175.54010114597622,None,0.01375,-0.0225,1,0,0,rectangle,0.013728274963796139,None,175.54010114597622,None,175.54010114597622,None,175.54010114597622,None,,001,2020_Oct_12_1244,Simcolourproject_2stim_asymm_v1,2020.1.2,59.89609224891794,
2,8,FF,0,62,62,62,176.1580677079619,176.42325956298737,176.1580677079619,None,176.65745097096078,None,176.65745097096078,None,176.65745097096078,None,176.65745097096078,None,176.65745097096078,None,176.65745097096078,None,176.65745097096078,None,176.65745097096078,None,0.0575,-0.13,1,0,0,response3disk,0.015405776561237872,None,176.65745097096078,None,176.65745097096078,None,None,None,None,None,None,None,None,None,None,None,None,None,None,None,None,None,0.0575,-0.13,1,0,0,response3disk,None,None,None,None,None,None,177.02641136798775,None,177.02641136798775,None,177.02641136798775,None,177.02641136798775,None,177.02641136798775,None,177.02641136798775,None,177.02641136798775,None,177.02641136798775,None,0.02,-0.02375,1,0,0,rectangle,0.01312534901080653,None,177.02641136798775,None,177.02641136798775,None,177.02641136798775,None,,001,2020_Oct_12_1244,Simcolourproject_2stim_asymm_v1,2020.1.2,59.89609224891794,
2,7,FF,0,63,63,63,177.70936995896045,177.97500980400946,177.70936995896045,None,178.22428836196195,None,178.22428836196195,None,178.22428836196195,None,178.22428836196195,None,178.22428836196195,None,178.22428836196195,None,178.22428836196195,None,178.22428836196195,None,0.1025,-0.05875,1,0,0,response3disk,0.015558136510662735,None,178.22428836196195,None,178.22428836196195,None,None,None,None,None,None,None,None,None,None,None,None,None,None,None,None,None,0.1025,-0.05875,1,0,0,response3disk,None,None,None,None,None,None,178.70955936197424,None,178.70955936197424,None,178.70955936197424,None,178.70955936197424,None,178.70955936197424,None,178.70955936197424,None,178.70955936197424,None,178.70955936197424,None,0.02125,-0.02,1,0,0,rectangle,0.012691091978922486,None,178.70955936197424,None,178.70955936197424,None,178.70955936197424,None,,001,2020_Oct_12_1244,Simcolourproject_2stim_asymm_v1,2020.1.2,59.89609224891794,
6,8,PF,0,64,64,64,179.259305466956,179.50886730197817,179.259305466956,None,179.7577862769831,None,179.7577862769831,None,179.7577862769831,None,179.7577862769831,None,179.7577862769831,None,179.7577862769831,None,179.7577862769831,None,179.7577862769831,None,0.07125,-0.0575,1,0,0,response3disk,0.015217951498925686,None,179.7577862769831,None,179.7577862769831,None,None,None,None,None,None,None,None,None,None,None,None,None,None,None,None,None,0.07125,-0.0575,1,0,0,response3disk,None,None,None,None,None,None,180.108215241984,None,180.108215241984,None,180.108215241984,None,180.108215241984,None,180.108215241984,None,180.108215241984,None,180.108215241984,None,180.108215241984,None,-0.0075,-0.01375,1,0,0,rectangle,0.00019921455532312393,None,180.108215241984,None,180.108215241984,None,180.108215241984,None,,001,2020_Oct_12_1244,Simcolourproject_2stim_asymm_v1,2020.1.2,59.89609224891794,
1,8,PF,0,65,65,65,180.57766442396678,180.84267255599843,180.57766442396678,None,181.09317878895672,None,181.09317878895672,None,181.09317878895672,None,181.09317878895672,None,181.09317878895672,None,181.09317878895672,None,181.09317878895672,None,181.09317878895672,None,0.03125,-0.12,1,0,0,response3disk,0.015576716512441635,None,181.09317878895672,None,181.09317878895672,None,None,None,None,None,None,None,None,None,None,None,None,None,None,None,None,None,0.03125,-0.12,1,0,0,response3disk,None,None,None,None,None,None,181.4264141409658,None,181.4264141409658,None,181.4264141409658,None,181.4264141409658,None,181.4264141409658,None,181.4264141409658,None,181.4264141409658,None,181.4264141409658,None,0.005,-0.02625,1,0,0,rectangle,0.0149176080012694,None,181.4264141409658,None,181.4264141409658,None,181.4264141409658,None,,001,2020_Oct_12_1244,Simcolourproject_2stim_asymm_v1,2020.1.2,59.89609224891794,
3,5,PF,0,66,66,66,182.56202317296993,182.82691608095774,182.56202317296993,None,183.07731150800828,None,183.07731150800828,None,183.07731150800828,None,183.07731150800828,None,183.07731150800828,None,183.07731150800828,None,183.07731150800828,None,183.07731150800828,None,-0.03125,-0.1075,1,0,0,response5disk,0.01558066951110959,None,183.07731150800828,None,183.07731150800828,None,None,None,None,None,None,None,None,None,None,None,None,None,None,None,None,None,-0.03125,-0.1075,1,0,0,response5disk,None,None,None,None,None,None,183.41035165596986,None,183.41035165596986,None,183.41035165596986,None,183.41035165596986,None,183.41035165596986,None,183.41035165596986,None,183.41035165596986,None,183.41035165596986,None,0.0,-0.00125,1,0,0,rectangle,0.014542222954332829,None,183.41035165596986,None,183.41035165596986,None,183.41035165596986,None,,001,2020_Oct_12_1244,Simcolourproject_2stim_asymm_v1,2020.1.2,59.89609224891794,
9,8,PF,0,67,67,67,183.9631152029615,184.22747491498012,183.9631152029615,None,184.4779250799911,None,184.4779250799911,None,184.4779250799911,None,184.4779250799911,None,184.4779250799911,None,184.4779250799911,None,184.4779250799911,None,184.4779250799911,None,-0.1025,-0.05875,1,0,0,response5disk,0.015349906519986689,None,184.4779250799911,None,184.4779250799911,None,None,None,None,None,None,None,None,None,None,None,None,None,None,None,None,None,-0.1025,-0.05875,1,0,0,response5disk,None,None,None,None,None,None,185.46167011500802,None,185.46167011500802,None,185.46167011500802,None,185.46167011500802,None,185.46167011500802,None,185.46167011500802,None,185.46167011500802,None,185.46167011500802,None,0.01,-0.01125,1,0,0,rectangle,0.013639574986882508,None,185.46167011500802,None,185.46167011500802,None,185.46167011500802,None,,001,2020_Oct_12_1244,Simcolourproject_2stim_asymm_v1,2020.1.2,59.89609224891794,
3,3,FF,0,68,68,68,186.33074128697626,186.59547537897015,186.33074128697626,None,186.8462844619644,None,186.8462844619644,None,186.8462844619644,None,186.8462844619644,None,186.8462844619644,None,186.8462844619644,None,186.8462844619644,None,186.8462844619644,None,-0.045,0.0925,1,0,0,response7disk,0.015446736535523087,None,186.8462844619644,None,186.8462844619644,None,None,None,None,None,None,None,None,None,None,None,None,None,None,None,None,None,-0.045,0.0925,1,0,0,response7disk,None,None,None,None,None,None,187.72951453900896,None,187.72951453900896,None,187.72951453900896,None,187.72951453900896,None,187.72951453900896,None,187.72951453900896,None,187.72951453900896,None,187.72951453900896,None,-0.01375,0.01375,1,0,0,rectangle,0.015837966988328844,None,187.72951453900896,None,187.72951453900896,None,187.72951453900896,None,,001,2020_Oct_12_1244,Simcolourproject_2stim_asymm_v1,2020.1.2,59.89609224891794,
2,3,PF,0,69,69,69,188.24826765595935,188.5136858149781,188.24826765595935,None,188.76408925600117,None,188.76408925600117,None,188.76408925600117,None,188.76408925600117,None,188.76408925600117,None,188.76408925600117,None,188.76408925600117,None,188.76408925600117,None,0.08375,0.0525,1,0,0,response1disk,0.01558571559144184,None,188.76408925600117,None,188.76408925600117,None,None,None,None,None,None,None,None,None,None,None,None,None,None,None,None,None,0.08375,0.0525,1,0,0,response1disk,None,None,None,None,None,None,189.23007622599835,None,189.23007622599835,None,189.23007622599835,None,189.23007622599835,None,189.23007622599835,None,189.23007622599835,None,189.23007622599835,None,189.23007622599835,None,0.015,0.01625,1,0,0,rectangle,0.014808144012931734,None,189.23007622599835,None,189.23007622599835,None,189.23007622599835,None,,001,2020_Oct_12_1244,Simcolourproject_2stim_asymm_v1,2020.1.2,59.89609224891794,
4,4,PF,0,70,70,70,190.11532386898762,190.37996109796222,190.11532386898762,None,190.63010680297157,None,190.63010680297157,None,190.63010680297157,None,190.63010680297157,None,190.63010680297157,None,190.63010680297157,None,190.63010680297157,None,190.63010680297157,None,0.1025,-0.04125,1,0,0,response3disk,0.015187731536570936,None,190.63010680297157,None,190.63010680297157,None,None,None,None,None,None,None,None,None,None,None,None,None,None,None,None,None,0.1025,-0.04125,1,0,0,response3disk,None,None,None,None,None,None,191.28185848897556,None,191.28185848897556,None,191.28185848897556,None,191.28185848897556,None,191.28185848897556,None,191.28185848897556,None,191.28185848897556,None,191.28185848897556,None,0.02,-0.00375,1,0,0,rectangle,0.014112700999248773,None,191.28185848897556,None,191.28185848897556,None,191.28185848897556,None,,001,2020_Oct_12_1244,Simcolourproject_2stim_asymm_v1,2020.1.2,59.89609224891794,
8,3,PF,0,71,71,71,192.04971429199213,192.31498944200575,192.04971429199213,None,192.56513641995843,None,192.56513641995843,None,192.56513641995843,None,192.56513641995843,None,192.56513641995843,None,192.56513641995843,None,192.56513641995843,None,192.56513641995843,None,0.0675,-0.08,1,0,0,response3disk,0.015588730573654175,None,192.56513641995843,None,192.56513641995843,None,None,None,None,None,None,None,None,None,None,None,None,None,None,None,None,None,0.0675,-0.08,1,0,0,response3disk,None,None,None,None,None,None,194.8323740089545,None,194.8323740089545,None,194.8323740089545,None,194.8323740089545,None,194.8323740089545,None,194.8323740089545,None,194.8323740089545,None,194.8323740089545,None,0.0425,-0.0075,1,0,0,rectangle,0.014757986005861312,None,194.8323740089545,None,194.8323740089545,None,194.8323740089545,None,,001,2020_Oct_12_1244,Simcolourproject_2stim_asymm_v1,2020.1.2,59.89609224891794,
2,9,FF,0,72,72,72,195.24951718898956,195.50001725397306,195.24951718898956,None,195.7508455279749,None,195.7508455279749,None,195.7508455279749,None,195.7508455279749,None,195.7508455279749,None,195.7508455279749,None,195.7508455279749,None,195.7508455279749,None,-0.02625,-0.085,1,0,0,response5disk,0.015260262473020703,None,195.7508455279749,None,195.7508455279749,None,None,None,None,None,None,None,None,None,None,None,None,None,None,None,None,None,-0.02625,-0.085,1,0,0,response5disk,None,None,None,None,None,None,196.56672487297328,None,196.56672487297328,None,196.56672487297328,None,196.56672487297328,None,196.56672487297328,None,196.56672487297328,None,196.56672487297328,None,196.56672487297328,None,0.00125,-0.01375,1,0,0,rectangle,0.014606933982577175,None,196.56672487297328,None,196.56672487297328,None,196.56672487297328,None,,001,2020_Oct_12_1244,Simcolourproject_2stim_asymm_v1,2020.1.2,59.89609224891794,
7,3,FF,0,73,73,73,196.95244264497887,197.21712231298443,196.95244264497887,None,197.4680230449885,None,197.4680230449885,None,197.4680230449885,None,197.4680230449885,None,197.4680230449885,None,197.4680230449885,None,197.4680230449885,None,197.4680230449885,None,-0.0925,-0.0475,1,0,0,response5disk,0.015590430470183492,None,197.4680230449885,None,197.4680230449885,None,None,None,None,None,None,None,None,None,None,None,None,None,None,None,None,None,-0.0925,-0.0475,1,0,0,response5disk,None,None,None,None,None,None,197.83519411296584,None,197.83519411296584,None,197.83519411296584,None,197.83519411296584,None,197.83519411296584,None,197.83519411296584,None,197.83519411296584,None,197.83519411296584,None,-0.0075,-0.0075,1,0,0,rectangle,0.013231126009486616,None,197.83519411296584,None,197.83519411296584,None,197.83519411296584,None,,001,2020_Oct_12_1244,Simcolourproject_2stim_asymm_v1,2020.1.2,59.89609224891794,
9,1,PF,0,74,74,74,198.20232117496198,198.46748839999782,198.20232117496198,None,198.71801206696546,None,198.71801206696546,None,198.71801206696546,None,198.71801206696546,None,198.71801206696546,None,198.71801206696546,None,198.71801206696546,None,198.71801206696546,None,0.0325,-0.09875,1,0,0,response3disk,0.015109543572179973,None,198.71801206696546,None,198.71801206696546,None,None,None,None,None,None,None,None,None,None,None,None,None,None,None,None,None,0.0325,-0.09875,1,0,0,response3disk,None,None,None,None,None,None,198.9515247469535,None,198.9515247469535,None,198.9515247469535,None,198.9515247469535,None,198.9515247469535,None,198.9515247469535,None,198.9515247469535,None,198.9515247469535,None,0.0325,-0.03625,1,0,0,rectangle,0.013793270976748317,None,198.9515247469535,None,198.9515247469535,None,198.9515247469535,None,,001,2020_Oct_12_1244,Simcolourproject_2stim_asymm_v1,2020.1.2,59.89609224891794,
4,9,PF,0,75,75,75,199.37053768796613,199.6349517669878,199.37053768796613,None,199.8848926560022,None,199.8848926560022,None,199.8848926560022,None,199.8848926560022,None,199.8848926560022,None,199.8848926560022,None,199.8848926560022,None,199.8848926560022,None,0.0875,-0.0575,1,0,0,response3disk,0.015897940553259104,None,199.8848926560022,None,199.8848926560022,None,None,None,None,None,None,None,None,None,None,None,None,None,None,None,None,None,0.0875,-0.0575,1,0,0,response3disk,None,None,None,None,None,None,200.18425103696063,None,200.18425103696063,None,200.18425103696063,None,200.18425103696063,None,200.18425103696063,None,200.18425103696063,None,200.18425103696063,None,200.18425103696063,None,0.01375,-0.0125,1,0,0,rectangle,0.0004934165044687688,None,200.18425103696063,None,200.18425103696063,None,200.18425103696063,None,,001,2020_Oct_12_1244,Simcolourproject_2stim_asymm_v1,2020.1.2,59.89609224891794,
1,1,PF,0,76,76,76,200.63768566196086,200.90205600199988,200.63768566196086,None,201.152810183994,None,201.152810183994,None,201.152810183994,None,201.152810183994,None,201.152810183994,None,201.152810183994,None,201.152810183994,None,201.152810183994,None,0.0275,-0.0925,1,0,0,response3disk,0.015563116525299847,None,201.152810183994,None,201.152810183994,None,None,None,None,None,None,None,None,None,None,None,None,None,None,None,None,None,0.0275,-0.0925,1,0,0,response3disk,None,None,None,None,None,None,201.9193396359915,None,201.9193396359915,None,201.9193396359915,None,201.9193396359915,None,201.9193396359915,None,201.9193396359915,None,201.9193396359915,None,201.9193396359915,None,0.01125,-0.02125,1,0,0,rectangle,0.012918630964122713,None,201.9193396359915,None,201.9193396359915,None,201.9193396359915,None,,001,2020_Oct_12_1244,Simcolourproject_2stim_asymm_v1,2020.1.2,59.89609224891794,
4,3,FF,0,77,77,77,202.48840120597742,202.75303046795307,202.48840120597742,None,203.003382432973,None,203.003382432973,None,203.003382432973,None,203.003382432973,None,203.003382432973,None,203.003382432973,None,203.003382432973,None,203.003382432973,None,-0.0575,-0.09625,1,0,0,response5disk,0.015566272544674575,None,203.003382432973,None,203.003382432973,None,203.30303952945397,None,203.30303952945397,None,203.30303952945397,None,203.30303952945397,None,203.30303952945397,None,203.30303952945397,None,203.30303952945397,None,203.30303952945397,None,-0.0575,-0.09625,1,0,0,response5disk,0.004841797461267561,None,203.30303952945397,None,203.30303952945397,None,203.32005307800137,None,203.32005307800137,None,203.32005307800137,None,203.32005307800137,None,203.32005307800137,None,203.32005307800137,None,203.32005307800137,None,203.32005307800137,None,-0.01,-0.01,1,0,0,rectangle,0.013757305918261409,None,203.32005307800137,None,203.32005307800137,None,203.32005307800137,None,,001,2020_Oct_12_1244,Simcolourproject_2stim_asymm_v1,2020.1.2,59.89609224891794,
8,4,PF,0,78,78,78,203.73867057496682,204.00360628496855,203.73867057496682,None,204.2538307000068,None,204.2538307000068,None,204.2538307000068,None,204.2538307000068,None,204.2538307000068,None,204.2538307000068,None,204.2538307000068,None,204.2538307000068,None,-0.10875,-0.05125,1,0,0,response5disk,0.0154372084653005,None,204.2538307000068,None,204.2538307000068,None,None,None,None,None,None,None,None,None,None,None,None,None,None,None,None,None,-0.10875,-0.05125,1,0,0,response5disk,None,None,None,None,None,None,204.58725479996065,None,204.58725479996065,None,204.58725479996065,None,204.58725479996065,None,204.58725479996065,None,204.58725479996065,None,204.58725479996065,None,204.58725479996065,None,-0.02375,-0.01375,1,0,0,rectangle,0.011133857944514602,None,204.58725479996065,None,204.58725479996065,None,204.58725479996065,None,,001,2020_Oct_12_1244,Simcolourproject_2stim_asymm_v1,2020.1.2,59.89609224891794,
3,9,PF,0,79,79,79,204.9872771250084,205.2374187670066,204.9872771250084,None,205.48791900696233,None,205.48791900696233,None,205.48791900696233,None,205.48791900696233,None,205.48791900696233,None,205.48791900696233,None,205.48791900696233,None,205.48791900696233,None,0.115,-0.04375,1,0,0,response3disk,0.015780278597958386,None,205.48791900696233,None,205.48791900696233,None,None,None,None,None,None,None,None,None,None,None,None,None,None,None,None,None,0.115,-0.04375,1,0,0,response3disk,None,None,None,None,None,None,205.80622373498045,None,205.80622373498045,None,205.80622373498045,None,205.80622373498045,None,205.80622373498045,None,205.80622373498045,None,205.80622373498045,None,205.80622373498045,None,0.03375,-0.01375,1,0,0,rectangle,0.0006270579760894179,None,205.80622373498045,None,205.80622373498045,None,205.80622373498045,None,,001,2020_Oct_12_1244,Simcolourproject_2stim_asymm_v1,2020.1.2,59.89609224891794,
2,5,FF,0,80,80,80,206.25527115998557,206.5045976539841,206.25527115998557,None,206.7565287409816,None,206.7565287409816,None,206.7565287409816,None,206.7565287409816,None,206.7565287409816,None,206.7565287409816,None,206.7565287409816,None,206.7565287409816,None,0.05,-0.11,1,0,0,response3disk,0.015234658552799374,None,206.7565287409816,None,206.7565287409816,None,None,None,None,None,None,None,None,None,None,None,None,None,None,None,None,None,0.05,-0.11,1,0,0,response3disk,None,None,None,None,None,None,207.07123278500512,None,207.07123278500512,None,207.07123278500512,None,207.07123278500512,None,207.07123278500512,None,207.07123278500512,None,207.07123278500512,None,207.07123278500512,None,0.025,-0.00875,1,0,0,rectangle,0.014165097032673657,None,207.07123278500512,None,207.07123278500512,None,207.07123278500512,None,,001,2020_Oct_12_1244,Simcolourproject_2stim_asymm_v1,2020.1.2,59.89609224891794,
7,3,PF,0,81,81,81,207.57512056198902,207.83827719598776,207.57512056198902,None,208.08894604898524,None,208.08894604898524,None,208.08894604898524,None,208.08894604898524,None,208.08894604898524,None,208.08894604898524,None,208.08894604898524,None,208.08894604898524,None,0.10625,-0.05375,1,0,0,response3disk,0.015589921560604125,None,208.08894604898524,None,208.08894604898524,None,None,None,None,None,None,None,None,None,None,None,None,None,None,None,None,None,0.10625,-0.05375,1,0,0,response3disk,None,None,None,None,None,None,208.73924052598886,None,208.73924052598886,None,208.73924052598886,None,208.73924052598886,None,208.73924052598886,None,208.73924052598886,None,208.73924052598886,None,208.73924052598886,None,0.0175,-0.01375,1,0,0,rectangle,0.014394484052900225,None,208.73924052598886,None,208.73924052598886,None,208.73924052598886,None,,001,2020_Oct_12_1244,Simcolourproject_2stim_asymm_v1,2020.1.2,59.89609224891794,
1,5,FF,0,82,82,82,209.27303231396945,209.52334781800164,209.27303231396945,None,209.77316858596168,None,209.77316858596168,None,209.77316858596168,None,209.77316858596168,None,209.77316858596168,None,209.77316858596168,None,209.77316858596168,None,209.77316858596168,None,-0.06,-0.09,1,0,0,response5disk,0.015588163514621556,None,209.77316858596168,None,209.77316858596168,None,None,None,None,None,None,None,None,None,None,None,None,None,None,None,None,None,-0.06,-0.09,1,0,0,response5disk,None,None,None,None,None,None,210.28960216097767,None,210.28960216097767,None,210.28960216097767,None,210.28960216097767,None,210.28960216097767,None,210.28960216097767,None,210.28960216097767,None,210.28960216097767,None,-0.00625,-0.01125,1,0,0,rectangle,0.014478397031780332,None,210.28960216097767,None,210.28960216097767,None,210.28960216097767,None,,001,2020_Oct_12_1244,Simcolourproject_2stim_asymm_v1,2020.1.2,59.89609224891794,
8,2,PF,0,83,83,83,210.82574922998901,211.09000506298617,210.82574922998901,None,211.34066063497448,None,211.34066063497448,None,211.34066063497448,None,211.34066063497448,None,211.34066063497448,None,211.34066063497448,None,211.34066063497448,None,211.34066063497448,None,-0.05,0.10375,1,0,0,response7disk,0.01559026853647083,None,211.34066063497448,None,211.34066063497448,None,None,None,None,None,None,None,None,None,None,None,None,None,None,None,None,None,-0.05,0.10375,1,0,0,response7disk,None,None,None,None,None,None,212.4241563199903,None,212.4241563199903,None,212.4241563199903,None,212.4241563199903,None,212.4241563199903,None,212.4241563199903,None,212.4241563199903,None,212.4241563199903,None,-0.02125,0.005,1,0,0,rectangle,0.013787925941869617,None,212.4241563199903,None,212.4241563199903,None,212.4241563199903,None,,001,2020_Oct_12_1244,Simcolourproject_2stim_asymm_v1,2020.1.2,59.89609224891794,
4,4,FF,0,84,84,84,212.86055680696154,213.12366392399417,212.86055680696154,None,213.37442231696332,None,213.37442231696332,None,213.37442231696332,None,213.37442231696332,None,213.37442231696332,None,213.37442231696332,None,213.37442231696332,None,213.37442231696332,None,-0.08125,0.045,1,0,0,response7disk,0.015631003538146615,None,213.37442231696332,None,213.37442231696332,None,None,None,None,None,None,None,None,None,None,None,None,None,None,None,None,None,-0.08125,0.045,1,0,0,response7disk,None,None,None,None,None,None,214.59198153897887,None,214.59198153897887,None,214.59198153897887,None,214.59198153897887,None,214.59198153897887,None,214.59198153897887,None,214.59198153897887,None,214.59198153897887,None,-0.00875,0.0025,1,0,0,rectangle,0.0003869665670208633,None,214.59198153897887,None,214.59198153897887,None,214.59198153897887,None,,001,2020_Oct_12_1244,Simcolourproject_2stim_asymm_v1,2020.1.2,59.89609224891794,
2,1,FF,0,85,85,85,215.01052732398966,215.2750445799902,215.01052732398966,None,215.5273291199701,None,215.5273291199701,None,215.5273291199701,None,215.5273291199701,None,215.5273291199701,None,215.5273291199701,None,215.5273291199701,None,215.5273291199701,None,0.04375,-0.06875,1,0,0,response3disk,0.015588356531225145,None,215.5273291199701,None,215.5273291199701,None,216.10917969447328,None,216.10917969447328,None,216.10917969447328,None,216.10917969447328,None,216.10917969447328,None,216.10917969447328,None,216.10917969447328,None,216.10917969447328,None,0.04375,-0.06875,1,0,0,response3disk,0.0053218655521050096,None,216.10917969447328,None,216.10917969447328,None,216.12805470300373,None,216.12805470300373,None,216.12805470300373,None,216.12805470300373,None,216.12805470300373,None,216.12805470300373,None,216.12805470300373,None,216.12805470300373,None,0.0125,-0.00875,1,0,0,rectangle,0.012018517998512834,None,216.12805470300373,None,216.12805470300373,None,216.12805470300373,None,,001,2020_Oct_12_1244,Simcolourproject_2stim_asymm_v1,2020.1.2,59.89609224891794,
8,7,FF,0,86,86,86,216.61181363801006,216.87636383296922,216.61181363801006,None,217.12603398796637,None,217.12603398796637,None,217.12603398796637,None,217.12603398796637,None,217.12603398796637,None,217.12603398796637,None,217.12603398796637,None,217.12603398796637,None,0.095,-0.035,1,0,0,response3disk,0.01558120344998315,None,217.12603398796637,None,217.12603398796637,None,None,None,None,None,None,None,None,None,None,None,None,None,None,None,None,None,0.095,-0.035,1,0,0,response3disk,None,None,None,None,None,None,219.6105883899727,None,219.6105883899727,None,219.6105883899727,None,219.6105883899727,None,219.6105883899727,None,219.6105883899727,None,219.6105883899727,None,219.6105883899727,None,0.00625,-0.01375,1,0,0,rectangle,0.010404235043097287,None,219.6105883899727,None,219.6105883899727,None,219.6105883899727,None,,001,2020_Oct_12_1244,Simcolourproject_2stim_asymm_v1,2020.1.2,59.89609224891794,
4,7,FF,0,87,87,87,220.16319157695398,220.42831415199907,220.16319157695398,None,220.6782705289661,None,220.6782705289661,None,220.6782705289661,None,220.6782705289661,None,220.6782705289661,None,220.6782705289661,None,220.6782705289661,None,220.6782705289661,None,0.03625,-0.1325,1,0,0,response3disk,0.015213020553346723,None,220.6782705289661,None,220.6782705289661,None,221.09459213950905,None,221.09459213950905,None,221.09459213950905,None,221.09459213950905,None,221.09459213950905,None,221.09459213950905,None,221.09459213950905,None,221.09459213950905,None,0.03625,-0.1325,1,0,0,response3disk,0.004524723568465561,None,221.09459213950905,None,221.09459213950905,None,221.1137688959716,None,221.1137688959716,None,221.1137688959716,None,221.1137688959716,None,221.1137688959716,None,221.1137688959716,None,221.1137688959716,None,221.1137688959716,None,-0.0025,-0.025,1,0,0,rectangle,0.011526804009918123,None,221.1137688959716,None,221.1137688959716,None,221.1137688959716,None,,001,2020_Oct_12_1244,Simcolourproject_2stim_asymm_v1,2020.1.2,59.89609224891794,
8,4,FF,0,88,88,88,222.0986077839625,222.3624206109671,222.0986077839625,None,222.61264126596507,None,222.61264126596507,None,222.61264126596507,None,222.61264126596507,None,222.61264126596507,None,222.61264126596507,None,222.61264126596507,None,222.61264126596507,None,-0.04125,-0.10625,1,0,0,response5disk,0.015581705491058528,None,222.61264126596507,None,222.61264126596507,None,None,None,None,None,None,None,None,None,None,None,None,None,None,None,None,None,-0.04125,-0.10625,1,0,0,response5disk,None,None,None,None,None,None,222.96234373096377,None,222.96234373096377,None,222.96234373096377,None,222.96234373096377,None,222.96234373096377,None,222.96234373096377,None,222.96234373096377,None,222.96234373096377,None,0.00875,-0.01625,1,0,0,rectangle,0.0004108325229026377,None,222.96234373096377,None,222.96234373096377,None,222.96234373096377,None,,001,2020_Oct_12_1244,Simcolourproject_2stim_asymm_v1,2020.1.2,59.89609224891794,
4,3,PF,0,89,89,89,223.48200927797006,223.74627301300643,223.48200927797006,None,223.99588378495537,None,223.99588378495537,None,223.99588378495537,None,223.99588378495537,None,223.99588378495537,None,223.99588378495537,None,223.99588378495537,None,223.99588378495537,None,-0.025,-0.09,1,0,0,response5disk,0.015591705508995801,None,223.99588378495537,None,223.99588378495537,None,None,None,None,None,None,None,None,None,None,None,None,None,None,None,None,None,-0.025,-0.09,1,0,0,response5disk,None,None,None,None,None,None,224.81318454199936,None,224.81318454199936,None,224.81318454199936,None,224.81318454199936,None,224.81318454199936,None,224.81318454199936,None,224.81318454199936,None,224.81318454199936,None,0.00875,-0.02,1,0,0,rectangle,0.01404565991833806,None,224.81318454199936,None,224.81318454199936,None,224.81318454199936,None,,001,2020_Oct_12_1244,Simcolourproject_2stim_asymm_v1,2020.1.2,59.89609224891794,
4,9,FF,0,90,90,90,225.31461184995715,225.56333893496776,225.31461184995715,None,225.83035710500553,None,225.83035710500553,None,225.83035710500553,None,225.83035710500553,None,225.83035710500553,None,225.83035710500553,None,225.83035710500553,None,225.83035710500553,None,0.0525,-0.1125,1,0,0,response3disk,0.015208730532322079,None,225.83035710500553,None,225.83035710500553,None,None,None,None,None,None,None,None,None,None,None,None,None,None,None,None,None,0.0525,-0.1125,1,0,0,response3disk,None,None,None,None,None,None,226.18060904496815,None,226.18060904496815,None,226.18060904496815,None,226.18060904496815,None,226.18060904496815,None,226.18060904496815,None,226.18060904496815,None,226.18060904496815,None,0.01375,-0.02625,1,0,0,rectangle,0.014516278984956443,None,226.18060904496815,None,226.18060904496815,None,226.18060904496815,None,,001,2020_Oct_12_1244,Simcolourproject_2stim_asymm_v1,2020.1.2,59.89609224891794,
6,6,FF,0,91,91,91,226.73247912200168,226.99789401696762,226.73247912200168,None,227.24777312396327,None,227.24777312396327,None,227.24777312396327,None,227.24777312396327,None,227.24777312396327,None,227.24777312396327,None,227.24777312396327,None,227.24777312396327,None,0.09125,-0.04875,1,0,0,response3disk,0.015495051513426006,None,227.24777312396327,None,227.24777312396327,None,None,None,None,None,None,None,None,None,None,None,None,None,None,None,None,None,0.09125,-0.04875,1,0,0,response3disk,None,None,None,None,None,None,227.53094325197162,None,227.53094325197162,None,227.53094325197162,None,227.53094325197162,None,227.53094325197162,None,227.53094325197162,None,227.53094325197162,None,227.53094325197162,None,0.0175,-0.0175,1,0,0,rectangle,0.013658239040523767,None,227.53094325197162,None,227.53094325197162,None,227.53094325197162,None,,001,2020_Oct_12_1244,Simcolourproject_2stim_asymm_v1,2020.1.2,59.89609224891794,
7,5,PF,0,92,92,92,228.13292164396262,228.3985689189867,228.13292164396262,None,228.64806695398875,None,228.64806695398875,None,228.64806695398875,None,228.64806695398875,None,228.64806695398875,None,228.64806695398875,None,228.64806695398875,None,228.64806695398875,None,-0.03,0.085,1,0,0,response7disk,0.015583091473672539,None,228.64806695398875,None,228.64806695398875,None,None,None,None,None,None,None,None,None,None,None,None,None,None,None,None,None,-0.03,0.085,1,0,0,response7disk,None,None,None,None,None,None,229.24863062100485,None,229.24863062100485,None,229.24863062100485,None,229.24863062100485,None,229.24863062100485,None,229.24863062100485,None,229.24863062100485,None,229.24863062100485,None,-0.03375,0.00875,1,0,0,rectangle,0.014378244988620281,None,229.24863062100485,None,229.24863062100485,None,229.24863062100485,None,,001,2020_Oct_12_1244,Simcolourproject_2stim_asymm_v1,2020.1.2,59.89609224891794,
3,2,FF,0,93,93,93,229.66749843099387,229.93228372297017,229.66749843099387,None,230.18321230495349,None,230.18321230495349,None,230.18321230495349,None,230.18321230495349,None,230.18321230495349,None,230.18321230495349,None,230.18321230495349,None,230.18321230495349,None,0.1175,0.0325,1,0,0,response1disk,0.015671655535697937,None,230.18321230495349,None,230.18321230495349,None,None,None,None,None,None,None,None,None,None,None,None,None,None,None,None,None,0.1175,0.0325,1,0,0,response1disk,None,None,None,None,None,None,230.8825970729813,None,230.8825970729813,None,230.8825970729813,None,230.8825970729813,None,230.8825970729813,None,230.8825970729813,None,230.8825970729813,None,230.8825970729813,None,0.01,-0.00625,1,0,0,rectangle,0.014828886953182518,None,230.8825970729813,None,230.8825970729813,None,230.8825970729813,None,,001,2020_Oct_12_1244,Simcolourproject_2stim_asymm_v1,2020.1.2,59.89609224891794,
5,5,PF,0,94,94,94,231.5191014679731,231.7835330629605,231.5191014679731,None,232.03362250997452,None,232.03362250997452,None,232.03362250997452,None,232.03362250997452,None,232.03362250997452,None,232.03362250997452,None,232.03362250997452,None,232.03362250997452,None,0.03625,-0.11375,1,0,0,response3disk,0.015588073525577784,None,232.03362250997452,None,232.03362250997452,None,None,None,None,None,None,None,None,None,None,None,None,None,None,None,None,None,0.03625,-0.11375,1,0,0,response3disk,None,None,None,None,None,None,232.59988412098028,None,232.59988412098028,None,232.59988412098028,None,232.59988412098028,None,232.59988412098028,None,232.59988412098028,None,232.59988412098028,None,232.59988412098028,None,0.00625,-0.0275,1,0,0,rectangle,0.015352495945990086,None,232.59988412098028,None,232.59988412098028,None,232.59988412098028,None,,001,2020_Oct_12_1244,Simcolourproject_2stim_asymm_v1,2020.1.2,59.89609224891794,
3,6,FF,0,95,95,95,233.1684045389993,233.4340562769794,233.1684045389993,None,233.6844576940057,None,233.6844576940057,None,233.6844576940057,None,233.6844576940057,None,233.6844576940057,None,233.6844576940057,None,233.6844576940057,None,233.6844576940057,None,-0.045,-0.1075,1,0,0,response5disk,0.01584712346084416,None,233.6844576940057,None,233.6844576940057,None,None,None,None,None,None,None,None,None,None,None,None,None,None,None,None,None,-0.045,-0.1075,1,0,0,response5disk,None,None,None,None,None,None,234.11841158900643,None,234.11841158900643,None,234.11841158900643,None,234.11841158900643,None,234.11841158900643,None,234.11841158900643,None,234.11841158900643,None,234.11841158900643,None,0.00875,-0.0125,1,0,0,rectangle,0.013239209947641939,None,234.11841158900643,None,234.11841158900643,None,234.11841158900643,None,,001,2020_Oct_12_1244,Simcolourproject_2stim_asymm_v1,2020.1.2,59.89609224891794,
3,1,PF,0,96,96,96,234.7362067559734,235.0015497939894,234.7362067559734,None,235.25191937899217,None,235.25191937899217,None,235.25191937899217,None,235.25191937899217,None,235.25191937899217,None,235.25191937899217,None,235.25191937899217,None,235.25191937899217,None,-0.07,-0.07,1,0,0,response5disk,0.015589024522341788,None,235.25191937899217,None,235.25191937899217,None,None,None,None,None,None,None,None,None,None,None,None,None,None,None,None,None,-0.07,-0.07,1,0,0,response5disk,None,None,None,None,None,None,235.86839594098274,None,235.86839594098274,None,235.86839594098274,None,235.86839594098274,None,235.86839594098274,None,235.86839594098274,None,235.86839594098274,None,235.86839594098274,None,0.01125,-0.01375,1,0,0,rectangle,0.0007434645085595548,None,235.86839594098274,None,235.86839594098274,None,235.86839594098274,None,,001,2020_Oct_12_1244,Simcolourproject_2stim_asymm_v1,2020.1.2,59.89609224891794,
7,8,FF,0,97,97,97,236.75403644598555,237.0193397779949,236.75403644598555,None,237.2696786779561,None,237.2696786779561,None,237.2696786779561,None,237.2696786779561,None,237.2696786779561,None,237.2696786779561,None,237.2696786779561,None,237.2696786779561,None,0.03625,-0.105,1,0,0,response3disk,0.015373911533970386,None,237.2696786779561,None,237.2696786779561,None,None,None,None,None,None,None,None,None,None,None,None,None,None,None,None,None,0.03625,-0.105,1,0,0,response3disk,None,None,None,None,None,None,237.55218484497163,None,237.55218484497163,None,237.55218484497163,None,237.55218484497163,None,237.55218484497163,None,237.55218484497163,None,237.55218484497163,None,237.55218484497163,None,0.01375,0.0025,1,0,0,rectangle,0.014020830916706473,None,237.55218484497163,None,237.55218484497163,None,237.55218484497163,None,,001,2020_Oct_12_1244,Simcolourproject_2stim_asymm_v1,2020.1.2,59.89609224891794,
8,5,PF,0,98,98,98,238.03845647297567,238.30317156296223,238.03845647297567,None,238.55319259496173,None,238.55319259496173,None,238.55319259496173,None,238.55319259496173,None,238.55319259496173,None,238.55319259496173,None,238.55319259496173,None,238.55319259496173,None,0.11,-0.08125,1,0,0,response3disk,0.015590590483043343,None,238.55319259496173,None,238.55319259496173,None,None,None,None,None,None,None,None,None,None,None,None,None,None,None,None,None,0.11,-0.08125,1,0,0,response3disk,None,None,None,None,None,None,238.88655436498811,None,238.88655436498811,None,238.88655436498811,None,238.88655436498811,None,238.88655436498811,None,238.88655436498811,None,238.88655436498811,None,238.88655436498811,None,0.0175,-0.00625,1,0,0,rectangle,0.014445446955505759,None,238.88655436498811,None,238.88655436498811,None,238.88655436498811,None,,001,2020_Oct_12_1244,Simcolourproject_2stim_asymm_v1,2020.1.2,59.89609224891794,
1,3,FF,0,99,99,99,239.38925208,239.65305926196743,239.38925208,None,239.90326086699497,None,239.90326086699497,None,239.90326086699497,None,239.90326086699497,None,239.90326086699497,None,239.90326086699497,None,239.90326086699497,None,239.90326086699497,None,0.04625,-0.10375,1,0,0,response3disk,0.015457157511264086,None,239.90326086699497,None,239.90326086699497,None,None,None,None,None,None,None,None,None,None,None,None,None,None,None,None,None,0.04625,-0.10375,1,0,0,response3disk,None,None,None,None,None,None,240.27103352197446,None,240.27103352197446,None,240.27103352197446,None,240.27103352197446,None,240.27103352197446,None,240.27103352197446,None,240.27103352197446,None,240.27103352197446,None,0.015,0.01375,1,0,0,rectangle,0.013784722948912531,None,240.27103352197446,None,240.27103352197446,None,240.27103352197446,None,,001,2020_Oct_12_1244,Simcolourproject_2stim_asymm_v1,2020.1.2,59.89609224891794,
9,7,FF,0,100,100,100,240.90602920396486,241.17135028197663,240.90602920396486,None,241.42167574097402,None,241.42167574097402,None,241.42167574097402,None,241.42167574097402,None,241.42167574097402,None,241.42167574097402,None,241.42167574097402,None,241.42167574097402,None,-0.0475,-0.1075,1,0,0,response5disk,0.015483154507819563,None,241.42167574097402,None,241.42167574097402,None,None,None,None,None,None,None,None,None,None,None,None,None,None,None,None,None,-0.0475,-0.1075,1,0,0,response5disk,None,None,None,None,None,None,242.08794741897145,None,242.08794741897145,None,242.08794741897145,None,242.08794741897145,None,242.08794741897145,None,242.08794741897145,None,242.08794741897145,None,242.08794741897145,None,0.01375,-0.005,1,0,0,rectangle,0.014208328968379647,None,242.08794741897145,None,242.08794741897145,None,242.08794741897145,None,,001,2020_Oct_12_1244,Simcolourproject_2stim_asymm_v1,2020.1.2,59.89609224891794,
3,5,FF,0,101,101,101,242.5403805389651,242.80446693795966,242.5403805389651,None,243.05498666298809,None,243.05498666298809,None,243.05498666298809,None,243.05498666298809,None,243.05498666298809,None,243.05498666298809,None,243.05498666298809,None,243.05498666298809,None,-0.03375,0.07125,1,0,0,response7disk,0.015587320493068546,None,243.05498666298809,None,243.05498666298809,None,None,None,None,None,None,None,None,None,None,None,None,None,None,None,None,None,-0.03375,0.07125,1,0,0,response7disk,None,None,None,None,None,None,243.47356037300779,None,243.47356037300779,None,243.47356037300779,None,243.47356037300779,None,243.47356037300779,None,243.47356037300779,None,243.47356037300779,None,243.47356037300779,None,-0.01375,-0.01125,1,0,0,rectangle,0.012718502024654299,None,243.47356037300779,None,243.47356037300779,None,243.47356037300779,None,,001,2020_Oct_12_1244,Simcolourproject_2stim_asymm_v1,2020.1.2,59.89609224891794,
4,1,FF,0,102,102,102,243.92464729299536,244.1892555700033,243.92464729299536,None,244.4393500649603,None,244.4393500649603,None,244.4393500649603,None,244.4393500649603,None,244.4393500649603,None,244.4393500649603,None,244.4393500649603,None,244.4393500649603,None,0.04125,0.06625,1,0,0,response1disk,0.015753982472233474,None,244.4393500649603,None,244.4393500649603,None,None,None,None,None,None,None,None,None,None,None,None,None,None,None,None,None,0.04125,0.06625,1,0,0,response1disk,None,None,None,None,None,None,244.83888859295985,None,244.83888859295985,None,244.83888859295985,None,244.83888859295985,None,244.83888859295985,None,244.83888859295985,None,244.83888859295985,None,244.83888859295985,None,0.005,-0.01625,1,0,0,rectangle,0.0012583534698933363,None,244.83888859295985,None,244.83888859295985,None,244.83888859295985,None,,001,2020_Oct_12_1244,Simcolourproject_2stim_asymm_v1,2020.1.2,59.89609224891794,
5,6,PF,0,103,103,103,245.2754854869563,245.5396469749976,245.2754854869563,None,245.7898843419971,None,245.7898843419971,None,245.7898843419971,None,245.7898843419971,None,245.7898843419971,None,245.7898843419971,None,245.7898843419971,None,245.7898843419971,None,0.1075,0.04625,1,0,0,response1disk,0.015121243486646563,None,245.7898843419971,None,245.7898843419971,None,246.28999498350314,None,246.28999498350314,None,246.28999498350314,None,246.28999498350314,None,246.28999498350314,None,246.28999498350314,None,246.28999498350314,None,246.28999498350314,None,0.1075,0.04625,1,0,0,response1disk,0.0043148655677214265,None,246.28999498350314,None,246.28999498350314,None,246.3075840889942,None,246.3075840889942,None,246.3075840889942,None,246.3075840889942,None,246.3075840889942,None,246.3075840889942,None,246.3075840889942,None,246.3075840889942,None,-0.02625,-0.015,1,0,0,rectangle,0.013151647988706827,None,246.3075840889942,None,246.3075840889942,None,246.3075840889942,None,,001,2020_Oct_12_1244,Simcolourproject_2stim_asymm_v1,2020.1.2,59.89609224891794,
2,3,FF,0,104,104,104,246.72679881198565,246.99061014398467,246.72679881198565,None,247.24082661198918,None,247.24082661198918,None,247.24082661198918,None,247.24082661198918,None,247.24082661198918,None,247.24082661198918,None,247.24082661198918,None,247.24082661198918,None,0.09375,-0.07125,1,0,0,response3disk,0.015583448519464582,None,247.24082661198918,None,247.24082661198918,None,None,None,None,None,None,None,None,None,None,None,None,None,None,None,None,None,0.09375,-0.07125,1,0,0,response3disk,None,None,None,None,None,None,247.6068973839865,None,247.6068973839865,None,247.6068973839865,None,247.6068973839865,None,247.6068973839865,None,247.6068973839865,None,247.6068973839865,None,247.6068973839865,None,0.03,-0.02375,1,0,0,rectangle,0.013807311013806611,None,247.6068973839865,None,247.6068973839865,None,247.6068973839865,None,,001,2020_Oct_12_1244,Simcolourproject_2stim_asymm_v1,2020.1.2,59.89609224891794,
