Colour_1,Colour_2,Ecc,trials.thisRepN,trials.thisTrialN,trials.thisN,trials.thisIndex,Circle_1.started,Circle_1.stopped,centre_cross4.started,centre_cross4.stopped,response1disk.started,response1disk.stopped,response2disk.started,response2disk.stopped,response3disk.started,response3disk.stopped,response4disk.started,response4disk.stopped,response5disk.started,response5disk.stopped,response6disk.started,response6disk.stopped,response7disk.started,response7disk.stopped,response8disk.started,response8disk.stopped,mouse.x,mouse.y,mouse.leftButton,mouse.midButton,mouse.rightButton,mouse.clicked_name,mouse.started,mouse.stopped,Circle_2.started,Circle_2.stopped,text_23.started,text_23.stopped,response1disk_3.started,response1disk_3.stopped,response2disk_3.started,response2disk_3.stopped,response3disk_3.started,response3disk_3.stopped,response4disk_3.started,response4disk_3.stopped,response5disk_3.started,response5disk_3.stopped,response6disk_3.started,response6disk_3.stopped,response7disk_3.started,response7disk_3.stopped,response8disk_3.started,response8disk_3.stopped,mouse_3.x,mouse_3.y,mouse_3.leftButton,mouse_3.midButton,mouse_3.rightButton,mouse_3.clicked_name,mouse_3.started,mouse_3.stopped,text_26.started,text_26.stopped,rectangle_2.started,rectangle_2.stopped,response1disk_2.started,response1disk_2.stopped,response2disk_2.started,response2disk_2.stopped,response3disk_2.started,response3disk_2.stopped,response4disk_2.started,response4disk_2.stopped,response5disk_2.started,response5disk_2.stopped,response6disk_2.started,response6disk_2.stopped,response7disk_2.started,response7disk_2.stopped,response8disk_2.started,response8disk_2.stopped,mouse_2.x,mouse_2.y,mouse_2.leftButton,mouse_2.midButton,mouse_2.rightButton,mouse_2.clicked_name,mouse_2.started,mouse_2.stopped,rectangle.started,rectangle.stopped,text_25.started,text_25.stopped,text_24.started,text_24.stopped,participant,session,date,expName,psychopyVersion,frameRate,
6,6,PF,0,0,0,0,70.65789945900906,70.92227385699516,70.65789945900906,None,71.15526399499504,None,71.15526399499504,None,71.15526399499504,None,71.15526399499504,None,71.15526399499504,None,71.15526399499504,None,71.15526399499504,None,71.15526399499504,None,0.04875,-0.1125,1,0,0,response3disk,0.015336974058300257,None,71.15526399499504,None,71.15526399499504,None,None,None,None,None,None,None,None,None,None,None,None,None,None,None,None,None,0.04875,-0.1125,1,0,0,response3disk,None,None,None,None,None,None,84.04529684904264,None,84.04529684904264,None,84.04529684904264,None,84.04529684904264,None,84.04529684904264,None,84.04529684904264,None,84.04529684904264,None,84.04529684904264,None,0.005,-0.00625,1,0,0,rectangle,0.011959709518123418,None,84.04529684904264,None,84.04529684904264,None,84.04529684904264,None,,001,2020_Oct_12_1209,Simcolourproject_2stim_asymm_v1,2020.1.2,59.94875269420661,
1,3,PF,0,1,1,1,84.92900185700273,85.17931449000025,84.92900185700273,None,85.42861797503429,None,85.42861797503429,None,85.42861797503429,None,85.42861797503429,None,85.42861797503429,None,85.42861797503429,None,85.42861797503429,None,85.42861797503429,None,0.1,-0.08125,1,0,0,response3disk,0.015615272102877498,None,85.42861797503429,None,85.42861797503429,None,None,None,None,None,None,None,None,None,None,None,None,None,None,None,None,None,0.1,-0.08125,1,0,0,response3disk,None,None,None,None,None,None,86.39870066801086,None,86.39870066801086,None,86.39870066801086,None,86.39870066801086,None,86.39870066801086,None,86.39870066801086,None,86.39870066801086,None,86.39870066801086,None,-0.01375,-0.0075,1,0,0,rectangle,0.01141027919948101,None,86.39870066801086,None,86.39870066801086,None,86.39870066801086,None,,001,2020_Oct_12_1209,Simcolourproject_2stim_asymm_v1,2020.1.2,59.94875269420661,
1,2,FF,0,2,2,2,87.03107247099979,87.296336043044,87.03107247099979,None,87.54605473100673,None,87.54605473100673,None,87.54605473100673,None,87.54605473100673,None,87.54605473100673,None,87.54605473100673,None,87.54605473100673,None,87.54605473100673,None,0.04,-0.12125,1,0,0,response3disk,0.015747530094813555,None,87.54605473100673,None,87.54605473100673,None,None,None,None,None,None,None,None,None,None,None,None,None,None,None,None,None,0.04,-0.12125,1,0,0,response3disk,None,None,None,None,None,None,88.36416346702026,None,88.36416346702026,None,88.36416346702026,None,88.36416346702026,None,88.36416346702026,None,88.36416346702026,None,88.36416346702026,None,88.36416346702026,None,0.00875,-0.00625,1,0,0,rectangle,0.013217054249253124,None,88.36416346702026,None,88.36416346702026,None,88.36416346702026,None,,001,2020_Oct_12_1209,Simcolourproject_2stim_asymm_v1,2020.1.2,59.94875269420661,
3,8,PF,0,3,3,3,88.94900729303481,89.2132359080133,88.94900729303481,None,89.46357311500469,None,89.46357311500469,None,89.46357311500469,None,89.46357311500469,None,89.46357311500469,None,89.46357311500469,None,89.46357311500469,None,89.46357311500469,None,-0.045,-0.08625,1,0,0,response5disk,0.015552083146758378,None,89.46357311500469,None,89.46357311500469,None,None,None,None,None,None,None,None,None,None,None,None,None,None,None,None,None,-0.045,-0.08625,1,0,0,response5disk,None,None,None,None,None,None,90.01442506304011,None,90.01442506304011,None,90.01442506304011,None,90.01442506304011,None,90.01442506304011,None,90.01442506304011,None,90.01442506304011,None,90.01442506304011,None,-0.0125,-0.00375,1,0,0,rectangle,0.0011499890824779868,None,90.01442506304011,None,90.01442506304011,None,90.01442506304011,None,,001,2020_Oct_12_1209,Simcolourproject_2stim_asymm_v1,2020.1.2,59.94875269420661,
3,3,PF,0,4,4,4,90.5006890000077,90.76494826498674,90.5006890000077,None,91.01498956501018,None,91.01498956501018,None,91.01498956501018,None,91.01498956501018,None,91.01498956501018,None,91.01498956501018,None,91.01498956501018,None,91.01498956501018,None,0.1275,-0.06,1,0,0,response3disk,0.015531070064753294,None,91.01498956501018,None,91.01498956501018,None,None,None,None,None,None,None,None,None,None,None,None,None,None,None,None,None,0.1275,-0.06,1,0,0,response3disk,None,None,None,None,None,None,92.06470724701649,None,92.06470724701649,None,92.06470724701649,None,92.06470724701649,None,92.06470724701649,None,92.06470724701649,None,92.06470724701649,None,92.06470724701649,None,0.0075,0.00375,1,0,0,rectangle,0.01575948018580675,None,92.06470724701649,None,92.06470724701649,None,92.06470724701649,None,,001,2020_Oct_12_1209,Simcolourproject_2stim_asymm_v1,2020.1.2,59.94875269420661,
6,1,FF,0,5,5,5,92.65102791402023,92.91499872104032,92.65102791402023,None,93.16658621403622,None,93.16658621403622,None,93.16658621403622,None,93.16658621403622,None,93.16658621403622,None,93.16658621403622,None,93.16658621403622,None,93.16658621403622,None,0.06375,-0.1175,1,0,0,response3disk,0.015539305051788688,None,93.16658621403622,None,93.16658621403622,None,None,None,None,None,None,None,None,None,None,None,None,None,None,None,None,None,0.06375,-0.1175,1,0,0,response3disk,None,None,None,None,None,None,93.88329225603957,None,93.88329225603957,None,93.88329225603957,None,93.88329225603957,None,93.88329225603957,None,93.88329225603957,None,93.88329225603957,None,93.88329225603957,None,0.01875,-0.01,1,0,0,rectangle,0.0131729242275469,None,93.88329225603957,None,93.88329225603957,None,93.88329225603957,None,,001,2020_Oct_12_1209,Simcolourproject_2stim_asymm_v1,2020.1.2,59.94875269420661,
9,8,FF,0,6,6,6,94.40146508999169,94.66624727100134,94.40146508999169,None,94.9164939459879,None,94.9164939459879,None,94.9164939459879,None,94.9164939459879,None,94.9164939459879,None,94.9164939459879,None,94.9164939459879,None,94.9164939459879,None,-0.05625,0.09125,1,0,0,response7disk,0.015541839122306556,None,94.9164939459879,None,94.9164939459879,None,None,None,None,None,None,None,None,None,None,None,None,None,None,None,None,None,-0.05625,0.09125,1,0,0,response7disk,None,None,None,None,None,None,95.63387768302346,None,95.63387768302346,None,95.63387768302346,None,95.63387768302346,None,95.63387768302346,None,95.63387768302346,None,95.63387768302346,None,95.63387768302346,None,-0.00875,0.00375,1,0,0,rectangle,0.014938598265871406,None,95.63387768302346,None,95.63387768302346,None,95.63387768302346,None,,001,2020_Oct_12_1209,Simcolourproject_2stim_asymm_v1,2020.1.2,59.94875269420661,
5,7,FF,0,7,7,7,96.25307775003603,96.51724710001145,96.25307775003603,None,96.76688632799778,None,96.76688632799778,None,96.76688632799778,None,96.76688632799778,None,96.76688632799778,None,96.76688632799778,None,96.76688632799778,None,96.76688632799778,None,0.085,0.04125,1,0,0,response1disk,0.015559347113594413,None,96.76688632799778,None,96.76688632799778,None,None,None,None,None,None,None,None,None,None,None,None,None,None,None,None,None,0.085,0.04125,1,0,0,response1disk,None,None,None,None,None,None,97.3349047570373,None,97.3349047570373,None,97.3349047570373,None,97.3349047570373,None,97.3349047570373,None,97.3349047570373,None,97.3349047570373,None,97.3349047570373,None,-0.0125,0.00125,1,0,0,rectangle,0.003988090204074979,None,97.3349047570373,None,97.3349047570373,None,97.3349047570373,None,,001,2020_Oct_12_1209,Simcolourproject_2stim_asymm_v1,2020.1.2,59.94875269420661,
5,4,FF,0,8,8,8,97.78766671003541,98.05250514199724,97.78766671003541,None,98.3024580469937,None,98.3024580469937,None,98.3024580469937,None,98.3024580469937,None,98.3024580469937,None,98.3024580469937,None,98.3024580469937,None,98.3024580469937,None,-0.06875,-0.07375,1,0,0,response5disk,0.015749400132335722,None,98.3024580469937,None,98.3024580469937,None,None,None,None,None,None,None,None,None,None,None,None,None,None,None,None,None,-0.06875,-0.07375,1,0,0,response5disk,None,None,None,None,None,None,98.95593144703889,None,98.95593144703889,None,98.95593144703889,None,98.95593144703889,None,98.95593144703889,None,98.95593144703889,None,98.95593144703889,None,98.95593144703889,None,-0.0175,0.0175,1,0,0,rectangle,0.01278644026024267,None,98.95593144703889,None,98.95593144703889,None,98.95593144703889,None,,001,2020_Oct_12_1209,Simcolourproject_2stim_asymm_v1,2020.1.2,59.94875269420661,
2,1,PF,0,9,9,9,99.45374107902171,99.71882236399688,99.45374107902171,None,99.96854417602299,None,99.96854417602299,None,99.96854417602299,None,99.96854417602299,None,99.96854417602299,None,99.96854417602299,None,99.96854417602299,None,99.96854417602299,None,0.0425,-0.06875,1,0,0,response3disk,0.015533220081124455,None,99.96854417602299,None,99.96854417602299,None,None,None,None,None,None,None,None,None,None,None,None,None,None,None,None,None,0.0425,-0.06875,1,0,0,response3disk,None,None,None,None,None,None,100.60329838603502,None,100.60329838603502,None,100.60329838603502,None,100.60329838603502,None,100.60329838603502,None,100.60329838603502,None,100.60329838603502,None,100.60329838603502,None,0.01125,0.01375,1,0,0,rectangle,0.01309424132341519,None,100.60329838603502,None,100.60329838603502,None,100.60329838603502,None,,001,2020_Oct_12_1209,Simcolourproject_2stim_asymm_v1,2020.1.2,59.94875269420661,
7,9,PF,0,10,10,10,101.00576883100439,101.26950999599649,101.00576883100439,None,101.51932017301442,None,101.51932017301442,None,101.51932017301442,None,101.51932017301442,None,101.51932017301442,None,101.51932017301442,None,101.51932017301442,None,101.51932017301442,None,0.12,-0.05875,1,0,0,response3disk,0.015542635112069547,None,101.51932017301442,None,101.51932017301442,None,None,None,None,None,None,None,None,None,None,None,None,None,None,None,None,None,0.12,-0.05875,1,0,0,response3disk,None,None,None,None,None,None,102.21992219303502,None,102.21992219303502,None,102.21992219303502,None,102.21992219303502,None,102.21992219303502,None,102.21992219303502,None,102.21992219303502,None,102.21992219303502,None,0.01125,-0.0075,1,0,0,rectangle,0.014911432226654142,None,102.21992219303502,None,102.21992219303502,None,102.21992219303502,None,,001,2020_Oct_12_1209,Simcolourproject_2stim_asymm_v1,2020.1.2,59.94875269420661,
9,2,FF,0,11,11,11,102.7724212280009,103.03737691201968,102.7724212280009,None,103.28724318300374,None,103.28724318300374,None,103.28724318300374,None,103.28724318300374,None,103.28724318300374,None,103.28724318300374,None,103.28724318300374,None,103.28724318300374,None,0.04125,-0.1125,1,0,0,response3disk,0.015556938131339848,None,103.28724318300374,None,103.28724318300374,None,None,None,None,None,None,None,None,None,None,None,None,None,None,None,None,None,0.04125,-0.1125,1,0,0,response3disk,None,None,None,None,None,None,103.92063654499361,None,103.92063654499361,None,103.92063654499361,None,103.92063654499361,None,103.92063654499361,None,103.92063654499361,None,103.92063654499361,None,103.92063654499361,None,-0.01375,-0.00625,1,0,0,rectangle,0.01551016722805798,None,103.92063654499361,None,103.92063654499361,None,103.92063654499361,None,,001,2020_Oct_12_1209,Simcolourproject_2stim_asymm_v1,2020.1.2,59.94875269420661,
5,6,FF,0,12,12,12,104.45750771701569,104.72124497202458,104.45750771701569,None,104.97115858003963,None,104.97115858003963,None,104.97115858003963,None,104.97115858003963,None,104.97115858003963,None,104.97115858003963,None,104.97115858003963,None,104.97115858003963,None,-0.05375,-0.10875,1,0,0,response5disk,0.015565183071885258,None,104.97115858003963,None,104.97115858003963,None,None,None,None,None,None,None,None,None,None,None,None,None,None,None,None,None,-0.05375,-0.10875,1,0,0,response5disk,None,None,None,None,None,None,105.68783544900361,None,105.68783544900361,None,105.68783544900361,None,105.68783544900361,None,105.68783544900361,None,105.68783544900361,None,105.68783544900361,None,105.68783544900361,None,-0.01625,0.00125,1,0,0,rectangle,0.014787015272304416,None,105.68783544900361,None,105.68783544900361,None,105.68783544900361,None,,001,2020_Oct_12_1209,Simcolourproject_2stim_asymm_v1,2020.1.2,59.94875269420661,
4,2,FF,0,13,13,13,106.24147819704376,106.50650971900905,106.24147819704376,None,106.75530200602952,None,106.75530200602952,None,106.75530200602952,None,106.75530200602952,None,106.75530200602952,None,106.75530200602952,None,106.75530200602952,None,106.75530200602952,None,0.04375,-0.09125,1,0,0,response3disk,0.015569687122479081,None,106.75530200602952,None,106.75530200602952,None,None,None,None,None,None,None,None,None,None,None,None,None,None,None,None,None,0.04375,-0.09125,1,0,0,response3disk,None,None,None,None,None,None,107.87276187998941,None,107.87276187998941,None,107.87276187998941,None,107.87276187998941,None,107.87276187998941,None,107.87276187998941,None,107.87276187998941,None,107.87276187998941,None,-0.0075,0.01,1,0,0,rectangle,0.014559340197592974,None,107.87276187998941,None,107.87276187998941,None,107.87276187998941,None,,001,2020_Oct_12_1209,Simcolourproject_2stim_asymm_v1,2020.1.2,59.94875269420661,
2,2,PF,0,14,14,14,108.94258854800137,109.20593046501745,108.94258854800137,None,109.45743990002666,None,109.45743990002666,None,109.45743990002666,None,109.45743990002666,None,109.45743990002666,None,109.45743990002666,None,109.45743990002666,None,109.45743990002666,None,0.1125,-0.0925,1,0,0,response3disk,0.015536098158918321,None,109.45743990002666,None,109.45743990002666,None,None,None,None,None,None,None,None,None,None,None,None,None,None,None,None,None,0.1125,-0.0925,1,0,0,response3disk,None,None,None,None,None,None,110.19140514003811,None,110.19140514003811,None,110.19140514003811,None,110.19140514003811,None,110.19140514003811,None,110.19140514003811,None,110.19140514003811,None,110.19140514003811,None,-0.04,-0.0225,1,0,0,rectangle,0.013195153209380805,None,110.19140514003811,None,110.19140514003811,None,110.19140514003811,None,,001,2020_Oct_12_1209,Simcolourproject_2stim_asymm_v1,2020.1.2,59.94875269420661,
1,9,PF,0,15,15,15,111.34342116001062,111.60778860701248,111.34342116001062,None,111.8587906039902,None,111.8587906039902,None,111.8587906039902,None,111.8587906039902,None,111.8587906039902,None,111.8587906039902,None,111.8587906039902,None,111.8587906039902,None,-0.1,-0.04625,1,0,0,response5disk,0.015558362123556435,None,111.8587906039902,None,111.8587906039902,None,None,None,None,None,None,None,None,None,None,None,None,None,None,None,None,None,-0.1,-0.04625,1,0,0,response5disk,None,None,None,None,None,None,112.49281113001052,None,112.49281113001052,None,112.49281113001052,None,112.49281113001052,None,112.49281113001052,None,112.49281113001052,None,112.49281113001052,None,112.49281113001052,None,-0.0275,0.0,1,0,0,rectangle,0.013601691229268909,None,112.49281113001052,None,112.49281113001052,None,112.49281113001052,None,,001,2020_Oct_12_1209,Simcolourproject_2stim_asymm_v1,2020.1.2,59.94875269420661,
5,8,FF,0,16,16,16,113.12799546902534,113.39234720403329,113.12799546902534,None,113.64224167104112,None,113.64224167104112,None,113.64224167104112,None,113.64224167104112,None,113.64224167104112,None,113.64224167104112,None,113.64224167104112,None,113.64224167104112,None,-0.07375,0.09125,1,0,0,response7disk,0.01552581210853532,None,113.64224167104112,None,113.64224167104112,None,None,None,None,None,None,None,None,None,None,None,None,None,None,None,None,None,-0.07375,0.09125,1,0,0,response7disk,None,None,None,None,None,None,114.39402119599981,None,114.39402119599981,None,114.39402119599981,None,114.39402119599981,None,114.39402119599981,None,114.39402119599981,None,114.39402119599981,None,114.39402119599981,None,0.0075,0.0075,1,0,0,rectangle,0.01246499625267461,None,114.39402119599981,None,114.39402119599981,None,114.39402119599981,None,,001,2020_Oct_12_1209,Simcolourproject_2stim_asymm_v1,2020.1.2,59.94875269420661,
9,9,FF,0,17,17,17,114.89589997503208,115.15881933300989,114.89589997503208,None,115.40957322804024,None,115.40957322804024,None,115.40957322804024,None,115.40957322804024,None,115.40957322804024,None,115.40957322804024,None,115.40957322804024,None,115.40957322804024,None,0.10875,0.03875,1,0,0,response1disk,0.015560420113615692,None,115.40957322804024,None,115.40957322804024,None,None,None,None,None,None,None,None,None,None,None,None,None,None,None,None,None,0.10875,0.03875,1,0,0,response1disk,None,None,None,None,None,None,116.04506737802876,None,116.04506737802876,None,116.04506737802876,None,116.04506737802876,None,116.04506737802876,None,116.04506737802876,None,116.04506737802876,None,116.04506737802876,None,-0.01,0.0,1,0,0,rectangle,0.013414213201031089,None,116.04506737802876,None,116.04506737802876,None,116.04506737802876,None,,001,2020_Oct_12_1209,Simcolourproject_2stim_asymm_v1,2020.1.2,59.94875269420661,
6,7,FF,0,18,18,18,116.49644260999048,116.76007060502889,116.49644260999048,None,117.01076403801562,None,117.01076403801562,None,117.01076403801562,None,117.01076403801562,None,117.01076403801562,None,117.01076403801562,None,117.01076403801562,None,117.01076403801562,None,0.065,-0.11125,1,0,0,response3disk,0.01564840809442103,None,117.01076403801562,None,117.01076403801562,None,None,None,None,None,None,None,None,None,None,None,None,None,None,None,None,None,0.065,-0.11125,1,0,0,response3disk,None,None,None,None,None,None,117.62829401000636,None,117.62829401000636,None,117.62829401000636,None,117.62829401000636,None,117.62829401000636,None,117.62829401000636,None,117.62829401000636,None,117.62829401000636,None,0.005,-0.02,1,0,0,rectangle,0.013939775235485286,None,117.62829401000636,None,117.62829401000636,None,117.62829401000636,None,,001,2020_Oct_12_1209,Simcolourproject_2stim_asymm_v1,2020.1.2,59.94875269420661,
5,5,FF,0,19,19,19,118.04615164198913,118.31124747701688,118.04615164198913,None,118.56089088699082,None,118.56089088699082,None,118.56089088699082,None,118.56089088699082,None,118.56089088699082,None,118.56089088699082,None,118.56089088699082,None,118.56089088699082,None,0.10125,-0.0525,1,0,0,response3disk,0.015557062113657594,None,118.56089088699082,None,118.56089088699082,None,None,None,None,None,None,None,None,None,None,None,None,None,None,None,None,None,0.10125,-0.0525,1,0,0,response3disk,None,None,None,None,None,None,119.54631558898836,None,119.54631558898836,None,119.54631558898836,None,119.54631558898836,None,119.54631558898836,None,119.54631558898836,None,119.54631558898836,None,119.54631558898836,None,-0.03375,-0.005,1,0,0,rectangle,0.013830275216605514,None,119.54631558898836,None,119.54631558898836,None,119.54631558898836,None,,001,2020_Oct_12_1209,Simcolourproject_2stim_asymm_v1,2020.1.2,59.94875269420661,
8,1,FF,0,20,20,20,119.99803033599164,120.26197217102163,119.99803033599164,None,120.51241431100061,None,120.51241431100061,None,120.51241431100061,None,120.51241431100061,None,120.51241431100061,None,120.51241431100061,None,120.51241431100061,None,120.51241431100061,None,0.02875,-0.10625,1,0,0,response3disk,0.01570873608579859,None,120.51241431100061,None,120.51241431100061,None,None,None,None,None,None,None,None,None,None,None,None,None,None,None,None,None,0.02875,-0.10625,1,0,0,response3disk,None,None,None,None,None,None,121.13032233703416,None,121.13032233703416,None,121.13032233703416,None,121.13032233703416,None,121.13032233703416,None,121.13032233703416,None,121.13032233703416,None,121.13032233703416,None,-0.02,-0.0025,1,0,0,rectangle,0.014346463256515563,None,121.13032233703416,None,121.13032233703416,None,121.13032233703416,None,,001,2020_Oct_12_1209,Simcolourproject_2stim_asymm_v1,2020.1.2,59.94875269420661,
6,3,FF,0,21,21,21,121.63181331299711,121.89642162102973,121.63181331299711,None,122.14649900601944,None,122.14649900601944,None,122.14649900601944,None,122.14649900601944,None,122.14649900601944,None,122.14649900601944,None,122.14649900601944,None,122.14649900601944,None,-0.05125,-0.1075,1,0,0,response5disk,0.015523348120041192,None,122.14649900601944,None,122.14649900601944,None,None,None,None,None,None,None,None,None,None,None,None,None,None,None,None,None,-0.05125,-0.1075,1,0,0,response5disk,None,None,None,None,None,None,122.79738053999608,None,122.79738053999608,None,122.79738053999608,None,122.79738053999608,None,122.79738053999608,None,122.79738053999608,None,122.79738053999608,None,122.79738053999608,None,-0.02875,0.02,1,0,0,rectangle,0.013119113224092871,None,122.79738053999608,None,122.79738053999608,None,122.79738053999608,None,,001,2020_Oct_12_1209,Simcolourproject_2stim_asymm_v1,2020.1.2,59.94875269420661,
8,2,FF,0,22,22,22,123.26519528502831,123.51380794000579,123.26519528502831,None,123.78001404204406,None,123.78001404204406,None,123.78001404204406,None,123.78001404204406,None,123.78001404204406,None,123.78001404204406,None,123.78001404204406,None,123.78001404204406,None,0.045,-0.0925,1,0,0,response3disk,0.01554914511507377,None,123.78001404204406,None,123.78001404204406,None,None,None,None,None,None,None,None,None,None,None,None,None,None,None,None,None,0.045,-0.0925,1,0,0,response3disk,None,None,None,None,None,None,124.48104161699302,None,124.48104161699302,None,124.48104161699302,None,124.48104161699302,None,124.48104161699302,None,124.48104161699302,None,124.48104161699302,None,124.48104161699302,None,0.0,-0.00125,1,0,0,rectangle,0.01344459125539288,None,124.48104161699302,None,124.48104161699302,None,124.48104161699302,None,,001,2020_Oct_12_1209,Simcolourproject_2stim_asymm_v1,2020.1.2,59.94875269420661,
8,7,PF,0,23,23,23,124.9824142770376,125.24808094702894,124.9824142770376,None,125.49872635601787,None,125.49872635601787,None,125.49872635601787,None,125.49872635601787,None,125.49872635601787,None,125.49872635601787,None,125.49872635601787,None,125.49872635601787,None,-0.085,0.09125,1,0,0,response7disk,0.01550046110060066,None,125.49872635601787,None,125.49872635601787,None,None,None,None,None,None,None,None,None,None,None,None,None,None,None,None,None,-0.085,0.09125,1,0,0,response7disk,None,None,None,None,None,None,126.26455722399987,None,126.26455722399987,None,126.26455722399987,None,126.26455722399987,None,126.26455722399987,None,126.26455722399987,None,126.26455722399987,None,126.26455722399987,None,0.00625,0.01,1,0,0,rectangle,0.015334200230427086,None,126.26455722399987,None,126.26455722399987,None,126.26455722399987,None,,001,2020_Oct_12_1209,Simcolourproject_2stim_asymm_v1,2020.1.2,59.94875269420661,
1,2,PF,0,24,24,24,126.98358273302438,127.24891216401011,126.98358273302438,None,127.49917859601555,None,127.49917859601555,None,127.49917859601555,None,127.49917859601555,None,127.49917859601555,None,127.49917859601555,None,127.49917859601555,None,127.49917859601555,None,0.085,0.05875,1,0,0,response1disk,0.01567847712431103,None,127.49917859601555,None,127.49917859601555,None,None,None,None,None,None,None,None,None,None,None,None,None,None,None,None,None,0.085,0.05875,1,0,0,response1disk,None,None,None,None,None,None,129.01884658203926,None,129.01884658203926,None,129.01884658203926,None,129.01884658203926,None,129.01884658203926,None,129.01884658203926,None,129.01884658203926,None,129.01884658203926,None,-0.0025,0.01125,1,0,0,rectangle,0.013586777204181999,None,129.01884658203926,None,129.01884658203926,None,129.01884658203926,None,,001,2020_Oct_12_1209,Simcolourproject_2stim_asymm_v1,2020.1.2,59.94875269420661,
5,3,FF,0,25,25,25,129.48614151001675,129.75019992300076,129.48614151001675,None,130.0001922280062,None,130.0001922280062,None,130.0001922280062,None,130.0001922280062,None,130.0001922280062,None,130.0001922280062,None,130.0001922280062,None,130.0001922280062,None,0.045,-0.08375,1,0,0,response3disk,0.015593195159453899,None,130.0001922280062,None,130.0001922280062,None,None,None,None,None,None,None,None,None,None,None,None,None,None,None,None,None,0.045,-0.08375,1,0,0,response3disk,None,None,None,None,None,None,130.68515690602362,None,130.68515690602362,None,130.68515690602362,None,130.68515690602362,None,130.68515690602362,None,130.68515690602362,None,130.68515690602362,None,130.68515690602362,None,-0.0025,-0.005,1,0,0,rectangle,0.0026303042541258037,None,130.68515690602362,None,130.68515690602362,None,130.68515690602362,None,,001,2020_Oct_12_1209,Simcolourproject_2stim_asymm_v1,2020.1.2,59.94875269420661,
6,3,PF,0,26,26,26,131.1378192330012,131.40063414501492,131.1378192330012,None,131.65204142202856,None,131.65204142202856,None,131.65204142202856,None,131.65204142202856,None,131.65204142202856,None,131.65204142202856,None,131.65204142202856,None,131.65204142202856,None,-0.0625,-0.095,1,0,0,response5disk,0.015522953122854233,None,131.65204142202856,None,131.65204142202856,None,None,None,None,None,None,None,None,None,None,None,None,None,None,None,None,None,-0.0625,-0.095,1,0,0,response5disk,None,None,None,None,None,None,132.35170715703862,None,132.35170715703862,None,132.35170715703862,None,132.35170715703862,None,132.35170715703862,None,132.35170715703862,None,132.35170715703862,None,132.35170715703862,None,-0.0025,0.01375,1,0,0,rectangle,0.013523686269763857,None,132.35170715703862,None,132.35170715703862,None,132.35170715703862,None,,001,2020_Oct_12_1209,Simcolourproject_2stim_asymm_v1,2020.1.2,59.94875269420661,
1,8,FF,0,27,27,27,132.90308472904144,133.16800507699372,132.90308472904144,None,133.41800678602885,None,133.41800678602885,None,133.41800678602885,None,133.41800678602885,None,133.41800678602885,None,133.41800678602885,None,133.41800678602885,None,133.41800678602885,None,0.085,-0.05,1,0,0,response3disk,0.015538605104666203,None,133.41800678602885,None,133.41800678602885,None,None,None,None,None,None,None,None,None,None,None,None,None,None,None,None,None,0.085,-0.05,1,0,0,response3disk,None,None,None,None,None,None,134.06871715403395,None,134.06871715403395,None,134.06871715403395,None,134.06871715403395,None,134.06871715403395,None,134.06871715403395,None,134.06871715403395,None,134.06871715403395,None,0.0125,-0.01375,1,0,0,rectangle,0.014150373230222613,None,134.06871715403395,None,134.06871715403395,None,134.06871715403395,None,,001,2020_Oct_12_1209,Simcolourproject_2stim_asymm_v1,2020.1.2,59.94875269420661,
1,5,PF,0,28,28,28,134.55441923602484,134.8188040209934,134.55441923602484,None,135.06963561603334,None,135.06963561603334,None,135.06963561603334,None,135.06963561603334,None,135.06963561603334,None,135.06963561603334,None,135.06963561603334,None,135.06963561603334,None,0.0575,-0.11625,1,0,0,response3disk,0.015526262111961842,None,135.06963561603334,None,135.06963561603334,None,None,None,None,None,None,None,None,None,None,None,None,None,None,None,None,None,0.0575,-0.11625,1,0,0,response3disk,None,None,None,None,None,None,135.60331946599763,None,135.60331946599763,None,135.60331946599763,None,135.60331946599763,None,135.60331946599763,None,135.60331946599763,None,135.60331946599763,None,135.60331946599763,None,-0.01125,-0.00625,1,0,0,rectangle,0.013177077169530094,None,135.60331946599763,None,135.60331946599763,None,135.60331946599763,None,,001,2020_Oct_12_1209,Simcolourproject_2stim_asymm_v1,2020.1.2,59.94875269420661,
7,6,PF,0,29,29,29,136.0868829539977,136.33710768300807,136.0868829539977,None,136.58644020103384,None,136.58644020103384,None,136.58644020103384,None,136.58644020103384,None,136.58644020103384,None,136.58644020103384,None,136.58644020103384,None,136.58644020103384,None,0.08375,0.0425,1,0,0,response1disk,0.015873279073275626,None,136.58644020103384,None,136.58644020103384,None,None,None,None,None,None,None,None,None,None,None,None,None,None,None,None,None,0.08375,0.0425,1,0,0,response1disk,None,None,None,None,None,None,137.18846820801264,None,137.18846820801264,None,137.18846820801264,None,137.18846820801264,None,137.18846820801264,None,137.18846820801264,None,137.18846820801264,None,137.18846820801264,None,-0.00625,-0.0075,1,0,0,rectangle,0.015519603271968663,None,137.18846820801264,None,137.18846820801264,None,137.18846820801264,None,,001,2020_Oct_12_1209,Simcolourproject_2stim_asymm_v1,2020.1.2,59.94875269420661,
3,4,PF,0,30,30,30,137.71968113200273,137.97054502699757,137.71968113200273,None,138.22097086004214,None,138.22097086004214,None,138.22097086004214,None,138.22097086004214,None,138.22097086004214,None,138.22097086004214,None,138.22097086004214,None,138.22097086004214,None,-0.06375,0.08625,1,0,0,response7disk,0.015555225079879165,None,138.22097086004214,None,138.22097086004214,None,None,None,None,None,None,None,None,None,None,None,None,None,None,None,None,None,-0.06375,0.08625,1,0,0,response7disk,None,None,None,None,None,None,138.7734851189889,None,138.7734851189889,None,138.7734851189889,None,138.7734851189889,None,138.7734851189889,None,138.7734851189889,None,138.7734851189889,None,138.7734851189889,None,-0.0025,-0.00375,1,0,0,rectangle,0.012807913240976632,None,138.7734851189889,None,138.7734851189889,None,138.7734851189889,None,,001,2020_Oct_12_1209,Simcolourproject_2stim_asymm_v1,2020.1.2,59.94875269420661,
7,6,FF,0,31,31,31,139.27228115702746,139.53850969299674,139.27228115702746,None,139.77148909703828,None,139.77148909703828,None,139.77148909703828,None,139.77148909703828,None,139.77148909703828,None,139.77148909703828,None,139.77148909703828,None,139.77148909703828,None,0.02875,-0.08875,1,0,0,response3disk,0.015350715140812099,None,139.77148909703828,None,139.77148909703828,None,None,None,None,None,None,None,None,None,None,None,None,None,None,None,None,None,0.02875,-0.08875,1,0,0,response3disk,None,None,None,None,None,None,140.2394204380107,None,140.2394204380107,None,140.2394204380107,None,140.2394204380107,None,140.2394204380107,None,140.2394204380107,None,140.2394204380107,None,140.2394204380107,None,0.0025,-0.01,1,0,0,rectangle,0.013465947180520743,None,140.2394204380107,None,140.2394204380107,None,140.2394204380107,None,,001,2020_Oct_12_1209,Simcolourproject_2stim_asymm_v1,2020.1.2,59.94875269420661,
7,2,PF,0,32,32,32,140.6900420060265,140.95544048101874,140.6900420060265,None,141.20559130603215,None,141.20559130603215,None,141.20559130603215,None,141.20559130603215,None,141.20559130603215,None,141.20559130603215,None,141.20559130603215,None,141.20559130603215,None,0.085,-0.04625,1,0,0,response3disk,0.015499677101615816,None,141.20559130603215,None,141.20559130603215,None,None,None,None,None,None,None,None,None,None,None,None,None,None,None,None,None,0.085,-0.04625,1,0,0,response3disk,None,None,None,None,None,None,141.90674525604118,None,141.90674525604118,None,141.90674525604118,None,141.90674525604118,None,141.90674525604118,None,141.90674525604118,None,141.90674525604118,None,141.90674525604118,None,0.00375,-0.00875,1,0,0,rectangle,0.01424237823812291,None,141.90674525604118,None,141.90674525604118,None,141.90674525604118,None,,001,2020_Oct_12_1209,Simcolourproject_2stim_asymm_v1,2020.1.2,59.94875269420661,
6,4,PF,0,33,33,33,142.49179157603066,142.75589823303744,142.49179157603066,None,143.00638198299566,None,143.00638198299566,None,143.00638198299566,None,143.00638198299566,None,143.00638198299566,None,143.00638198299566,None,143.00638198299566,None,143.00638198299566,None,0.04625,-0.08375,1,0,0,response3disk,0.015632353140972555,None,143.00638198299566,None,143.00638198299566,None,None,None,None,None,None,None,None,None,None,None,None,None,None,None,None,None,0.04625,-0.08375,1,0,0,response3disk,None,None,None,None,None,None,143.62304665200645,None,143.62304665200645,None,143.62304665200645,None,143.62304665200645,None,143.62304665200645,None,143.62304665200645,None,143.62304665200645,None,143.62304665200645,None,-0.01,0.0,1,0,0,rectangle,0.014524950238410383,None,143.62304665200645,None,143.62304665200645,None,143.62304665200645,None,,001,2020_Oct_12_1209,Simcolourproject_2stim_asymm_v1,2020.1.2,59.94875269420661,
7,7,FF,0,34,34,34,146.44335219601635,146.7070604560431,146.44335219601635,None,146.95755170099437,None,146.95755170099437,None,146.95755170099437,None,146.95755170099437,None,146.95755170099437,None,146.95755170099437,None,146.95755170099437,None,146.95755170099437,None,0.11,-0.05375,1,0,0,response3disk,0.015550186100881547,None,146.95755170099437,None,146.95755170099437,None,None,None,None,None,None,None,None,None,None,None,None,None,None,None,None,None,0.11,-0.05375,1,0,0,response3disk,None,None,None,None,None,None,147.6926306860405,None,147.6926306860405,None,147.6926306860405,None,147.6926306860405,None,147.6926306860405,None,147.6926306860405,None,147.6926306860405,None,147.6926306860405,None,0.00625,-0.00375,1,0,0,rectangle,0.01322217215783894,None,147.6926306860405,None,147.6926306860405,None,147.6926306860405,None,,001,2020_Oct_12_1209,Simcolourproject_2stim_asymm_v1,2020.1.2,59.94875269420661,
4,8,FF,0,35,35,35,148.42763464798918,148.69235282798763,148.42763464798918,None,148.94234269298613,None,148.94234269298613,None,148.94234269298613,None,148.94234269298613,None,148.94234269298613,None,148.94234269298613,None,148.94234269298613,None,148.94234269298613,None,0.045,-0.11,1,0,0,response3disk,0.015547785093076527,None,148.94234269298613,None,148.94234269298613,None,None,None,None,None,None,None,None,None,None,None,None,None,None,None,None,None,0.045,-0.11,1,0,0,response3disk,None,None,None,None,None,None,149.67539889801992,None,149.67539889801992,None,149.67539889801992,None,149.67539889801992,None,149.67539889801992,None,149.67539889801992,None,149.67539889801992,None,149.67539889801992,None,-0.00875,-0.0125,1,0,0,rectangle,0.014012547209858894,None,149.67539889801992,None,149.67539889801992,None,149.67539889801992,None,,001,2020_Oct_12_1209,Simcolourproject_2stim_asymm_v1,2020.1.2,59.94875269420661,
3,2,PF,0,36,36,36,150.27875639300328,150.543108295009,150.27875639300328,None,150.79294605000177,None,150.79294605000177,None,150.79294605000177,None,150.79294605000177,None,150.79294605000177,None,150.79294605000177,None,150.79294605000177,None,150.79294605000177,None,-0.055,-0.11,1,0,0,response5disk,0.015756807173602283,None,150.79294605000177,None,150.79294605000177,None,None,None,None,None,None,None,None,None,None,None,None,None,None,None,None,None,-0.055,-0.11,1,0,0,response5disk,None,None,None,None,None,None,151.5116512600216,None,151.5116512600216,None,151.5116512600216,None,151.5116512600216,None,151.5116512600216,None,151.5116512600216,None,151.5116512600216,None,151.5116512600216,None,-0.01,-0.01,1,0,0,rectangle,0.01305625622626394,None,151.5116512600216,None,151.5116512600216,None,151.5116512600216,None,,001,2020_Oct_12_1209,Simcolourproject_2stim_asymm_v1,2020.1.2,59.94875269420661,
8,6,FF,0,37,37,37,152.41245142702246,152.6773071140051,152.41245142702246,None,152.92781396902865,None,152.92781396902865,None,152.92781396902865,None,152.92781396902865,None,152.92781396902865,None,152.92781396902865,None,152.92781396902865,None,152.92781396902865,None,0.03125,-0.105,1,0,0,response3disk,0.015534265083260834,None,152.92781396902865,None,152.92781396902865,None,None,None,None,None,None,None,None,None,None,None,None,None,None,None,None,None,0.03125,-0.105,1,0,0,response3disk,None,None,None,None,None,None,153.99657177302288,None,153.99657177302288,None,153.99657177302288,None,153.99657177302288,None,153.99657177302288,None,153.99657177302288,None,153.99657177302288,None,153.99657177302288,None,-0.01625,-0.0025,1,0,0,rectangle,0.013394275214523077,None,153.99657177302288,None,153.99657177302288,None,153.99657177302288,None,,001,2020_Oct_12_1209,Simcolourproject_2stim_asymm_v1,2020.1.2,59.94875269420661,
4,7,PF,0,38,38,38,154.71337489801226,154.97860586398747,154.71337489801226,None,155.2293942309916,None,155.2293942309916,None,155.2293942309916,None,155.2293942309916,None,155.2293942309916,None,155.2293942309916,None,155.2293942309916,None,155.2293942309916,None,-0.09,-0.07625,1,0,0,response5disk,0.015557118109427392,None,155.2293942309916,None,155.2293942309916,None,None,None,None,None,None,None,None,None,None,None,None,None,None,None,None,None,-0.09,-0.07625,1,0,0,response5disk,None,None,None,None,None,None,156.01461097004358,None,156.01461097004358,None,156.01461097004358,None,156.01461097004358,None,156.01461097004358,None,156.01461097004358,None,156.01461097004358,None,156.01461097004358,None,0.015,0.00375,1,0,0,rectangle,0.01352688524639234,None,156.01461097004358,None,156.01461097004358,None,156.01461097004358,None,,001,2020_Oct_12_1209,Simcolourproject_2stim_asymm_v1,2020.1.2,59.94875269420661,
2,9,PF,0,39,39,39,157.01517043000786,157.27995158499107,157.01517043000786,None,157.5297308100271,None,157.5297308100271,None,157.5297308100271,None,157.5297308100271,None,157.5297308100271,None,157.5297308100271,None,157.5297308100271,None,157.5297308100271,None,0.06,-0.11375,1,0,0,response3disk,0.015540597145445645,None,157.5297308100271,None,157.5297308100271,None,None,None,None,None,None,None,None,None,None,None,None,None,None,None,None,None,0.06,-0.11375,1,0,0,response3disk,None,None,None,None,None,None,158.5963419949985,None,158.5963419949985,None,158.5963419949985,None,158.5963419949985,None,158.5963419949985,None,158.5963419949985,None,158.5963419949985,None,158.5963419949985,None,0.0125,-0.015,1,0,0,rectangle,0.01632042124401778,None,158.5963419949985,None,158.5963419949985,None,158.5963419949985,None,,001,2020_Oct_12_1209,Simcolourproject_2stim_asymm_v1,2020.1.2,59.94875269420661,
2,6,FF,0,40,40,40,159.24962749698898,159.5144106289954,159.24962749698898,None,159.7638462689938,None,159.7638462689938,None,159.7638462689938,None,159.7638462689938,None,159.7638462689938,None,159.7638462689938,None,159.7638462689938,None,159.7638462689938,None,0.13625,-0.0625,1,0,0,response3disk,0.0155563221196644,None,159.7638462689938,None,159.7638462689938,None,None,None,None,None,None,None,None,None,None,None,None,None,None,None,None,None,0.13625,-0.0625,1,0,0,response3disk,None,None,None,None,None,None,160.7313739139936,None,160.7313739139936,None,160.7313739139936,None,160.7313739139936,None,160.7313739139936,None,160.7313739139936,None,160.7313739139936,None,160.7313739139936,None,-0.01,-0.00625,1,0,0,rectangle,0.013755328254774213,None,160.7313739139936,None,160.7313739139936,None,160.7313739139936,None,,001,2020_Oct_12_1209,Simcolourproject_2stim_asymm_v1,2020.1.2,59.94875269420661,
3,7,PF,0,41,41,41,161.6179073730018,161.88209570600884,161.6179073730018,None,162.13153488299577,None,162.13153488299577,None,162.13153488299577,None,162.13153488299577,None,162.13153488299577,None,162.13153488299577,None,162.13153488299577,None,162.13153488299577,None,0.11375,0.035,1,0,0,response1disk,0.015553115110378712,None,162.13153488299577,None,162.13153488299577,None,None,None,None,None,None,None,None,None,None,None,None,None,None,None,None,None,0.11375,0.035,1,0,0,response1disk,None,None,None,None,None,None,163.41580472001806,None,163.41580472001806,None,163.41580472001806,None,163.41580472001806,None,163.41580472001806,None,163.41580472001806,None,163.41580472001806,None,163.41580472001806,None,-0.00625,-0.02375,1,0,0,rectangle,0.01525970222428441,None,163.41580472001806,None,163.41580472001806,None,163.41580472001806,None,,001,2020_Oct_12_1209,Simcolourproject_2stim_asymm_v1,2020.1.2,59.94875269420661,
8,9,PF,0,42,42,42,164.10076634504367,164.36667963501532,164.10076634504367,None,164.59918751002988,None,164.59918751002988,None,164.59918751002988,None,164.59918751002988,None,164.59918751002988,None,164.59918751002988,None,164.59918751002988,None,164.59918751002988,None,0.03,-0.10125,1,0,0,response3disk,0.015516310057137161,None,164.59918751002988,None,164.59918751002988,None,None,None,None,None,None,None,None,None,None,None,None,None,None,None,None,None,0.03,-0.10125,1,0,0,response3disk,None,None,None,None,None,None,165.2510110560106,None,165.2510110560106,None,165.2510110560106,None,165.2510110560106,None,165.2510110560106,None,165.2510110560106,None,165.2510110560106,None,165.2510110560106,None,-0.035,0.02,1,0,0,rectangle,0.00989586825016886,None,165.2510110560106,None,165.2510110560106,None,165.2510110560106,None,,001,2020_Oct_12_1209,Simcolourproject_2stim_asymm_v1,2020.1.2,59.94875269420661,
7,4,PF,0,43,43,43,165.7015481260023,165.96678302699002,165.7015481260023,None,166.20002620702144,None,166.20002620702144,None,166.20002620702144,None,166.20002620702144,None,166.20002620702144,None,166.20002620702144,None,166.20002620702144,None,166.20002620702144,None,-0.11625,-0.05375,1,0,0,response5disk,0.015553723089396954,None,166.20002620702144,None,166.20002620702144,None,None,None,None,None,None,None,None,None,None,None,None,None,None,None,None,None,-0.11625,-0.05375,1,0,0,response5disk,None,None,None,None,None,None,166.95097797102062,None,166.95097797102062,None,166.95097797102062,None,166.95097797102062,None,166.95097797102062,None,166.95097797102062,None,166.95097797102062,None,166.95097797102062,None,0.0225,0.01,1,0,0,rectangle,0.01394838624401018,None,166.95097797102062,None,166.95097797102062,None,166.95097797102062,None,,001,2020_Oct_12_1209,Simcolourproject_2stim_asymm_v1,2020.1.2,59.94875269420661,
3,8,FF,0,44,44,44,167.553961231024,167.81789401901187,167.553961231024,None,168.06751721102046,None,168.06751721102046,None,168.06751721102046,None,168.06751721102046,None,168.06751721102046,None,168.06751721102046,None,168.06751721102046,None,168.06751721102046,None,-0.0475,0.11125,1,0,0,response7disk,0.01555661705788225,None,168.06751721102046,None,168.06751721102046,None,None,None,None,None,None,None,None,None,None,None,None,None,None,None,None,None,-0.0475,0.11125,1,0,0,response7disk,None,None,None,None,None,None,169.03532063303282,None,169.03532063303282,None,169.03532063303282,None,169.03532063303282,None,169.03532063303282,None,169.03532063303282,None,169.03532063303282,None,169.03532063303282,None,0.005,0.00375,1,0,0,rectangle,0.01586749718990177,None,169.03532063303282,None,169.03532063303282,None,169.03532063303282,None,,001,2020_Oct_12_1209,Simcolourproject_2stim_asymm_v1,2020.1.2,59.94875269420661,
6,9,PF,0,45,45,45,169.57069769501686,169.83582959399791,169.57069769501686,None,170.0853497129865,None,170.0853497129865,None,170.0853497129865,None,170.0853497129865,None,170.0853497129865,None,170.0853497129865,None,170.0853497129865,None,170.0853497129865,None,0.05,-0.12125,1,0,0,response3disk,0.015549880045000464,None,170.0853497129865,None,170.0853497129865,None,None,None,None,None,None,None,None,None,None,None,None,None,None,None,None,None,0.05,-0.12125,1,0,0,response3disk,None,None,None,None,None,None,170.7025448080385,None,170.7025448080385,None,170.7025448080385,None,170.7025448080385,None,170.7025448080385,None,170.7025448080385,None,170.7025448080385,None,170.7025448080385,None,-0.0175,-0.015,1,0,0,rectangle,0.013950714259408414,None,170.7025448080385,None,170.7025448080385,None,170.7025448080385,None,,001,2020_Oct_12_1209,Simcolourproject_2stim_asymm_v1,2020.1.2,59.94875269420661,
6,1,PF,0,46,46,46,171.42117323999992,171.68654802202946,171.42117323999992,None,171.93704817001708,None,171.93704817001708,None,171.93704817001708,None,171.93704817001708,None,171.93704817001708,None,171.93704817001708,None,171.93704817001708,None,171.93704817001708,None,0.125,-0.0525,1,0,0,response3disk,0.015555498073808849,None,171.93704817001708,None,171.93704817001708,None,None,None,None,None,None,None,None,None,None,None,None,None,None,None,None,None,0.125,-0.0525,1,0,0,response3disk,None,None,None,None,None,None,172.78781860903837,None,172.78781860903837,None,172.78781860903837,None,172.78781860903837,None,172.78781860903837,None,172.78781860903837,None,172.78781860903837,None,172.78781860903837,None,-0.01625,-0.00375,1,0,0,rectangle,0.014054998231586069,None,172.78781860903837,None,172.78781860903837,None,172.78781860903837,None,,001,2020_Oct_12_1209,Simcolourproject_2stim_asymm_v1,2020.1.2,59.94875269420661,
3,6,PF,0,47,47,47,173.35620520904195,173.62045206601033,173.35620520904195,None,173.87056238902733,None,173.87056238902733,None,173.87056238902733,None,173.87056238902733,None,173.87056238902733,None,173.87056238902733,None,173.87056238902733,None,173.87056238902733,None,0.095,0.0525,1,0,0,response1disk,0.015560157131403685,None,173.87056238902733,None,173.87056238902733,None,None,None,None,None,None,None,None,None,None,None,None,None,None,None,None,None,0.095,0.0525,1,0,0,response1disk,None,None,None,None,None,None,174.53823856601957,None,174.53823856601957,None,174.53823856601957,None,174.53823856601957,None,174.53823856601957,None,174.53823856601957,None,174.53823856601957,None,174.53823856601957,None,0.00375,0.00125,1,0,0,rectangle,0.014757980243302882,None,174.53823856601957,None,174.53823856601957,None,174.53823856601957,None,,001,2020_Oct_12_1209,Simcolourproject_2stim_asymm_v1,2020.1.2,59.94875269420661,
8,8,FF,0,48,48,48,175.07208727201214,175.32148199301446,175.07208727201214,None,175.571396660991,None,175.571396660991,None,175.571396660991,None,175.571396660991,None,175.571396660991,None,175.571396660991,None,175.571396660991,None,175.571396660991,None,0.035,-0.08125,1,0,0,response3disk,0.01539758307626471,None,175.571396660991,None,175.571396660991,None,None,None,None,None,None,None,None,None,None,None,None,None,None,None,None,None,0.035,-0.08125,1,0,0,response3disk,None,None,None,None,None,None,176.22173748502973,None,176.22173748502973,None,176.22173748502973,None,176.22173748502973,None,176.22173748502973,None,176.22173748502973,None,176.22173748502973,None,176.22173748502973,None,0.00375,-0.01,1,0,0,rectangle,0.0009047631756402552,None,176.22173748502973,None,176.22173748502973,None,176.22173748502973,None,,001,2020_Oct_12_1209,Simcolourproject_2stim_asymm_v1,2020.1.2,59.94875269420661,
4,5,PF,0,49,49,49,176.75798642000882,177.0225311309914,176.75798642000882,None,177.2725476489868,None,177.2725476489868,None,177.2725476489868,None,177.2725476489868,None,177.2725476489868,None,177.2725476489868,None,177.2725476489868,None,177.2725476489868,None,0.05,-0.1125,1,0,0,response3disk,0.015346643107477576,None,177.2725476489868,None,177.2725476489868,None,None,None,None,None,None,None,None,None,None,None,None,None,None,None,None,None,0.05,-0.1125,1,0,0,response3disk,None,None,None,None,None,None,179.52464637701632,None,179.52464637701632,None,179.52464637701632,None,179.52464637701632,None,179.52464637701632,None,179.52464637701632,None,179.52464637701632,None,179.52464637701632,None,0.0025,-0.015,1,0,0,rectangle,0.014049512275960296,None,179.52464637701632,None,179.52464637701632,None,179.52464637701632,None,,001,2020_Oct_12_1209,Simcolourproject_2stim_asymm_v1,2020.1.2,59.94875269420661,
6,7,PF,0,50,50,50,180.20862254902022,180.4742576800054,180.20862254902022,None,180.72508214099798,None,180.72508214099798,None,180.72508214099798,None,180.72508214099798,None,180.72508214099798,None,180.72508214099798,None,180.72508214099798,None,180.72508214099798,None,-0.0425,-0.1225,1,0,0,response5disk,0.015530934149865061,None,180.72508214099798,None,180.72508214099798,None,None,None,None,None,None,None,None,None,None,None,None,None,None,None,None,None,-0.0425,-0.1225,1,0,0,response5disk,None,None,None,None,None,None,181.24152019899338,None,181.24152019899338,None,181.24152019899338,None,181.24152019899338,None,181.24152019899338,None,181.24152019899338,None,181.24152019899338,None,181.24152019899338,None,-0.0025,0.00625,1,0,0,rectangle,0.013065691222436726,None,181.24152019899338,None,181.24152019899338,None,181.24152019899338,None,,001,2020_Oct_12_1209,Simcolourproject_2stim_asymm_v1,2020.1.2,59.94875269420661,
7,7,PF,0,51,51,51,181.72697920602513,181.99253521702485,181.72697920602513,None,182.2414986770018,None,182.2414986770018,None,182.2414986770018,None,182.2414986770018,None,182.2414986770018,None,182.2414986770018,None,182.2414986770018,None,182.2414986770018,None,-0.07875,-0.0725,1,0,0,response5disk,0.015738512098323554,None,182.2414986770018,None,182.2414986770018,None,None,None,None,None,None,None,None,None,None,None,None,None,None,None,None,None,-0.07875,-0.0725,1,0,0,response5disk,None,None,None,None,None,None,182.6249190410017,None,182.6249190410017,None,182.6249190410017,None,182.6249190410017,None,182.6249190410017,None,182.6249190410017,None,182.6249190410017,None,182.6249190410017,None,0.02125,0.00875,1,0,0,rectangle,0.014559202245436609,None,182.6249190410017,None,182.6249190410017,None,182.6249190410017,None,,001,2020_Oct_12_1209,Simcolourproject_2stim_asymm_v1,2020.1.2,59.94875269420661,
2,8,PF,0,52,52,52,183.15944343298906,183.40846165001858,183.15944343298906,None,183.6587609249982,None,183.6587609249982,None,183.6587609249982,None,183.6587609249982,None,183.6587609249982,None,183.6587609249982,None,183.6587609249982,None,183.6587609249982,None,0.045,0.1025,1,0,0,response1disk,0.015408607141580433,None,183.6587609249982,None,183.6587609249982,None,None,None,None,None,None,None,None,None,None,None,None,None,None,None,None,None,0.045,0.1025,1,0,0,response1disk,None,None,None,None,None,None,184.40914051700383,None,184.40914051700383,None,184.40914051700383,None,184.40914051700383,None,184.40914051700383,None,184.40914051700383,None,184.40914051700383,None,184.40914051700383,None,0.01125,-0.01125,1,0,0,rectangle,0.014063132228329778,None,184.40914051700383,None,184.40914051700383,None,184.40914051700383,None,,001,2020_Oct_12_1209,Simcolourproject_2stim_asymm_v1,2020.1.2,59.94875269420661,
7,1,PF,0,53,53,53,184.91150055202888,185.1763934600167,184.91150055202888,None,185.42594566498883,None,185.42594566498883,None,185.42594566498883,None,185.42594566498883,None,185.42594566498883,None,185.42594566498883,None,185.42594566498883,None,185.42594566498883,None,0.14,0.0275,1,0,0,response1disk,0.015558900078758597,None,185.42594566498883,None,185.42594566498883,None,None,None,None,None,None,None,None,None,None,None,None,None,None,None,None,None,0.14,0.0275,1,0,0,response1disk,None,None,None,None,None,None,185.9448168890085,None,185.9448168890085,None,185.9448168890085,None,185.9448168890085,None,185.9448168890085,None,185.9448168890085,None,185.9448168890085,None,185.9448168890085,None,0.01125,-0.01625,1,0,0,rectangle,0.012742829218041152,None,185.9448168890085,None,185.9448168890085,None,185.9448168890085,None,,001,2020_Oct_12_1209,Simcolourproject_2stim_asymm_v1,2020.1.2,59.94875269420661,
5,4,PF,0,54,54,54,186.4962637340068,186.7604588670074,186.4962637340068,None,187.01125265599694,None,187.01125265599694,None,187.01125265599694,None,187.01125265599694,None,187.01125265599694,None,187.01125265599694,None,187.01125265599694,None,187.01125265599694,None,0.08,-0.07125,1,0,0,response3disk,0.015609382127877325,None,187.01125265599694,None,187.01125265599694,None,None,None,None,None,None,None,None,None,None,None,None,None,None,None,None,None,0.08,-0.07125,1,0,0,response3disk,None,None,None,None,None,None,187.47831109102117,None,187.47831109102117,None,187.47831109102117,None,187.47831109102117,None,187.47831109102117,None,187.47831109102117,None,187.47831109102117,None,187.47831109102117,None,-0.02625,0.0,1,0,0,rectangle,0.013674487185198814,None,187.47831109102117,None,187.47831109102117,None,187.47831109102117,None,,001,2020_Oct_12_1209,Simcolourproject_2stim_asymm_v1,2020.1.2,59.94875269420661,
5,2,FF,0,55,55,55,188.02927530102897,188.29457256599562,188.02927530102897,None,188.54409078601748,None,188.54409078601748,None,188.54409078601748,None,188.54409078601748,None,188.54409078601748,None,188.54409078601748,None,188.54409078601748,None,188.54409078601748,None,-0.0475,-0.09,1,0,0,response5disk,0.015751626109704375,None,188.54409078601748,None,188.54409078601748,None,None,None,None,None,None,None,None,None,None,None,None,None,None,None,None,None,-0.0475,-0.09,1,0,0,response5disk,None,None,None,None,None,None,193.94641074899118,None,193.94641074899118,None,193.94641074899118,None,193.94641074899118,None,193.94641074899118,None,193.94641074899118,None,193.94641074899118,None,193.94641074899118,None,-0.00625,0.0025,1,0,0,rectangle,0.002070724091026932,None,193.94641074899118,None,193.94641074899118,None,193.94641074899118,None,,001,2020_Oct_12_1209,Simcolourproject_2stim_asymm_v1,2020.1.2,59.94875269420661,
6,4,FF,0,56,56,56,194.5328186689876,194.79788169101812,194.5328186689876,None,195.04774776101112,None,195.04774776101112,None,195.04774776101112,None,195.04774776101112,None,195.04774776101112,None,195.04774776101112,None,195.04774776101112,None,195.04774776101112,None,-0.09375,-0.04625,1,0,0,response5disk,0.01574352808529511,None,195.04774776101112,None,195.04774776101112,None,None,None,None,None,None,None,None,None,None,None,None,None,None,None,None,None,-0.09375,-0.04625,1,0,0,response5disk,None,None,None,None,None,None,195.5651648910134,None,195.5651648910134,None,195.5651648910134,None,195.5651648910134,None,195.5651648910134,None,195.5651648910134,None,195.5651648910134,None,195.5651648910134,None,0.00375,0.0025,1,0,0,rectangle,0.00563233025604859,None,195.5651648910134,None,195.5651648910134,None,195.5651648910134,None,,001,2020_Oct_12_1209,Simcolourproject_2stim_asymm_v1,2020.1.2,59.94875269420661,
8,1,PF,0,57,57,57,196.0506336960243,196.31470097001875,196.0506336960243,None,196.5662754230434,None,196.5662754230434,None,196.5662754230434,None,196.5662754230434,None,196.5662754230434,None,196.5662754230434,None,196.5662754230434,None,196.5662754230434,None,-0.10625,0.05,1,0,0,response7disk,0.01576874405145645,None,196.5662754230434,None,196.5662754230434,None,None,None,None,None,None,None,None,None,None,None,None,None,None,None,None,None,-0.10625,0.05,1,0,0,response7disk,None,None,None,None,None,None,197.4660510829999,None,197.4660510829999,None,197.4660510829999,None,197.4660510829999,None,197.4660510829999,None,197.4660510829999,None,197.4660510829999,None,197.4660510829999,None,0.02625,-0.00875,1,0,0,rectangle,0.009757502179127187,None,197.4660510829999,None,197.4660510829999,None,197.4660510829999,None,,001,2020_Oct_12_1209,Simcolourproject_2stim_asymm_v1,2020.1.2,59.94875269420661,
1,6,FF,0,58,58,58,198.03478965500835,198.2993782000267,198.03478965500835,None,198.54918388504302,None,198.54918388504302,None,198.54918388504302,None,198.54918388504302,None,198.54918388504302,None,198.54918388504302,None,198.54918388504302,None,198.54918388504302,None,-0.02125,0.08,1,0,0,response7disk,0.015534442092757672,None,198.54918388504302,None,198.54918388504302,None,None,None,None,None,None,None,None,None,None,None,None,None,None,None,None,None,-0.02125,0.08,1,0,0,response7disk,None,None,None,None,None,None,199.215549509041,None,199.215549509041,None,199.215549509041,None,199.215549509041,None,199.215549509041,None,199.215549509041,None,199.215549509041,None,199.215549509041,None,0.005,0.00125,1,0,0,rectangle,0.014779685239773244,None,199.215549509041,None,199.215549509041,None,199.215549509041,None,,001,2020_Oct_12_1209,Simcolourproject_2stim_asymm_v1,2020.1.2,59.94875269420661,
6,5,PF,0,59,59,59,199.71869649901055,199.9829630870372,199.71869649901055,None,200.23361541202758,None,200.23361541202758,None,200.23361541202758,None,200.23361541202758,None,200.23361541202758,None,200.23361541202758,None,200.23361541202758,None,200.23361541202758,None,0.0775,-0.04375,1,0,0,response3disk,0.015530235134065151,None,200.23361541202758,None,200.23361541202758,None,None,None,None,None,None,None,None,None,None,None,None,None,None,None,None,None,0.0775,-0.04375,1,0,0,response3disk,None,None,None,None,None,None,201.01656506600557,None,201.01656506600557,None,201.01656506600557,None,201.01656506600557,None,201.01656506600557,None,201.01656506600557,None,201.01656506600557,None,201.01656506600557,None,0.00375,-0.01375,1,0,0,rectangle,0.01599933725083247,None,201.01656506600557,None,201.01656506600557,None,201.01656506600557,None,,001,2020_Oct_12_1209,Simcolourproject_2stim_asymm_v1,2020.1.2,59.94875269420661,
9,4,FF,0,60,60,60,201.63614390103612,201.9008003009949,201.63614390103612,None,202.15118940302636,None,202.15118940302636,None,202.15118940302636,None,202.15118940302636,None,202.15118940302636,None,202.15118940302636,None,202.15118940302636,None,202.15118940302636,None,0.02625,-0.07875,1,0,0,response3disk,0.015532182063907385,None,202.15118940302636,None,202.15118940302636,None,None,None,None,None,None,None,None,None,None,None,None,None,None,None,None,None,0.02625,-0.07875,1,0,0,response3disk,None,None,None,None,None,None,202.60107882600278,None,202.60107882600278,None,202.60107882600278,None,202.60107882600278,None,202.60107882600278,None,202.60107882600278,None,202.60107882600278,None,202.60107882600278,None,-0.00625,-0.01375,1,0,0,rectangle,0.014130776224192232,None,202.60107882600278,None,202.60107882600278,None,202.60107882600278,None,,001,2020_Oct_12_1209,Simcolourproject_2stim_asymm_v1,2020.1.2,59.94875269420661,
5,9,FF,0,61,61,61,203.21986469998956,203.48583565902663,203.21986469998956,None,203.7349874690408,None,203.7349874690408,None,203.7349874690408,None,203.7349874690408,None,203.7349874690408,None,203.7349874690408,None,203.7349874690408,None,203.7349874690408,None,-0.03875,-0.09875,1,0,0,response5disk,0.015421296178828925,None,203.7349874690408,None,203.7349874690408,None,None,None,None,None,None,None,None,None,None,None,None,None,None,None,None,None,-0.03875,-0.09875,1,0,0,response5disk,None,None,None,None,None,None,204.20593206502963,None,204.20593206502963,None,204.20593206502963,None,204.20593206502963,None,204.20593206502963,None,204.20593206502963,None,204.20593206502963,None,204.20593206502963,None,-0.0275,0.00625,1,0,0,rectangle,0.011779641208704561,None,204.20593206502963,None,204.20593206502963,None,204.20593206502963,None,,001,2020_Oct_12_1209,Simcolourproject_2stim_asymm_v1,2020.1.2,59.94875269420661,
2,8,FF,0,62,62,62,204.83691930701025,205.1017084470368,204.83691930701025,None,205.35175167699344,None,205.35175167699344,None,205.35175167699344,None,205.35175167699344,None,205.35175167699344,None,205.35175167699344,None,205.35175167699344,None,205.35175167699344,None,-0.06125,0.0925,1,0,0,response7disk,0.015728672151453793,None,205.35175167699344,None,205.35175167699344,None,None,None,None,None,None,None,None,None,None,None,None,None,None,None,None,None,-0.06125,0.0925,1,0,0,response7disk,None,None,None,None,None,None,205.90237493702443,None,205.90237493702443,None,205.90237493702443,None,205.90237493702443,None,205.90237493702443,None,205.90237493702443,None,205.90237493702443,None,205.90237493702443,None,-0.02375,0.01,1,0,0,rectangle,0.014310654194559902,None,205.90237493702443,None,205.90237493702443,None,205.90237493702443,None,,001,2020_Oct_12_1209,Simcolourproject_2stim_asymm_v1,2020.1.2,59.94875269420661,
2,7,FF,0,63,63,63,206.5379808639991,206.8030099690077,206.5379808639991,None,207.05316697398666,None,207.05316697398666,None,207.05316697398666,None,207.05316697398666,None,207.05316697398666,None,207.05316697398666,None,207.05316697398666,None,207.05316697398666,None,-0.10875,0.03625,1,0,0,response7disk,0.015527262061368674,None,207.05316697398666,None,207.05316697398666,None,None,None,None,None,None,None,None,None,None,None,None,None,None,None,None,None,-0.10875,0.03625,1,0,0,response7disk,None,None,None,None,None,None,208.019638169033,None,208.019638169033,None,208.019638169033,None,208.019638169033,None,208.019638169033,None,208.019638169033,None,208.019638169033,None,208.019638169033,None,0.0125,-0.00875,1,0,0,rectangle,0.0158745301887393,None,208.019638169033,None,208.019638169033,None,208.019638169033,None,,001,2020_Oct_12_1209,Simcolourproject_2stim_asymm_v1,2020.1.2,59.94875269420661,
6,8,PF,0,64,64,64,208.55575003102422,208.8206378360046,208.55575003102422,None,209.07057875103783,None,209.07057875103783,None,209.07057875103783,None,209.07057875103783,None,209.07057875103783,None,209.07057875103783,None,209.07057875103783,None,209.07057875103783,None,-0.035,-0.09875,1,0,0,response5disk,0.015545920061413199,None,209.07057875103783,None,209.07057875103783,None,None,None,None,None,None,None,None,None,None,None,None,None,None,None,None,None,-0.035,-0.09875,1,0,0,response5disk,None,None,None,None,None,None,209.72130800801096,None,209.72130800801096,None,209.72130800801096,None,209.72130800801096,None,209.72130800801096,None,209.72130800801096,None,209.72130800801096,None,209.72130800801096,None,-0.0075,-0.00125,1,0,0,rectangle,0.013703302247449756,None,209.72130800801096,None,209.72130800801096,None,209.72130800801096,None,,001,2020_Oct_12_1209,Simcolourproject_2stim_asymm_v1,2020.1.2,59.94875269420661,
1,8,PF,0,65,65,65,210.3905662050238,210.65464482002426,210.3905662050238,None,210.90509374800604,None,210.90509374800604,None,210.90509374800604,None,210.90509374800604,None,210.90509374800604,None,210.90509374800604,None,210.90509374800604,None,210.90509374800604,None,0.0475,-0.08,1,0,0,response3disk,0.01573893113527447,None,210.90509374800604,None,210.90509374800604,None,None,None,None,None,None,None,None,None,None,None,None,None,None,None,None,None,0.0475,-0.08,1,0,0,response3disk,None,None,None,None,None,None,211.62190254702,None,211.62190254702,None,211.62190254702,None,211.62190254702,None,211.62190254702,None,211.62190254702,None,211.62190254702,None,211.62190254702,None,0.00625,-0.0225,1,0,0,rectangle,0.014471799251623452,None,211.62190254702,None,211.62190254702,None,211.62190254702,None,,001,2020_Oct_12_1209,Simcolourproject_2stim_asymm_v1,2020.1.2,59.94875269420661,
3,5,PF,0,66,66,66,212.04113441699883,212.30514963000314,212.04113441699883,None,212.55528972198954,None,212.55528972198954,None,212.55528972198954,None,212.55528972198954,None,212.55528972198954,None,212.55528972198954,None,212.55528972198954,None,212.55528972198954,None,0.065,-0.12375,1,0,0,response3disk,0.015559123130515218,None,212.55528972198954,None,212.55528972198954,None,None,None,None,None,None,None,None,None,None,None,None,None,None,None,None,None,0.065,-0.12375,1,0,0,response3disk,None,None,None,None,None,None,226.14587432902772,None,226.14587432902772,None,226.14587432902772,None,226.14587432902772,None,226.14587432902772,None,226.14587432902772,None,226.14587432902772,None,226.14587432902772,None,0.0075,-0.02125,1,0,0,rectangle,0.01532185118412599,None,226.14587432902772,None,226.14587432902772,None,226.14587432902772,None,,001,2020_Oct_12_1209,Simcolourproject_2stim_asymm_v1,2020.1.2,59.94875269420661,
9,8,PF,0,67,67,67,226.59666027699132,226.84632621199125,226.59666027699132,None,227.0973613410024,None,227.0973613410024,None,227.0973613410024,None,227.0973613410024,None,227.0973613410024,None,227.0973613410024,None,227.0973613410024,None,227.0973613410024,None,-0.05125,-0.0975,1,0,0,response5disk,0.015559874125756323,None,227.0973613410024,None,227.0973613410024,None,None,None,None,None,None,None,None,None,None,None,None,None,None,None,None,None,-0.05125,-0.0975,1,0,0,response5disk,None,None,None,None,None,None,227.98048221500358,None,227.98048221500358,None,227.98048221500358,None,227.98048221500358,None,227.98048221500358,None,227.98048221500358,None,227.98048221500358,None,227.98048221500358,None,-0.01375,0.01375,1,0,0,rectangle,0.0070594222052022815,None,227.98048221500358,None,227.98048221500358,None,227.98048221500358,None,,001,2020_Oct_12_1209,Simcolourproject_2stim_asymm_v1,2020.1.2,59.94875269420661,
3,3,FF,0,68,68,68,228.57961209199857,228.83124686102383,228.57961209199857,None,229.08274183003232,None,229.08274183003232,None,229.08274183003232,None,229.08274183003232,None,229.08274183003232,None,229.08274183003232,None,229.08274183003232,None,229.08274183003232,None,0.06125,-0.085,1,0,0,response3disk,0.014823031146079302,None,229.08274183003232,None,229.08274183003232,None,None,None,None,None,None,None,None,None,None,None,None,None,None,None,None,None,0.06125,-0.085,1,0,0,response3disk,None,None,None,None,None,None,251.95858370698988,None,251.95858370698988,None,251.95858370698988,None,251.95858370698988,None,251.95858370698988,None,251.95858370698988,None,251.95858370698988,None,251.95858370698988,None,0.0125,0.01625,1,0,0,rectangle,0.013810338277835399,None,251.95858370698988,None,251.95858370698988,None,251.95858370698988,None,,001,2020_Oct_12_1209,Simcolourproject_2stim_asymm_v1,2020.1.2,59.94875269420661,
2,3,PF,0,69,69,69,252.52656650001882,252.79128188703908,252.52656650001882,None,253.04174180701375,None,253.04174180701375,None,253.04174180701375,None,253.04174180701375,None,253.04174180701375,None,253.04174180701375,None,253.04174180701375,None,253.04174180701375,None,-0.07125,0.09625,1,0,0,response7disk,0.015530392120126635,None,253.04174180701375,None,253.04174180701375,None,None,None,None,None,None,None,None,None,None,None,None,None,None,None,None,None,-0.07125,0.09625,1,0,0,response7disk,None,None,None,None,None,None,253.6749697169871,None,253.6749697169871,None,253.6749697169871,None,253.6749697169871,None,253.6749697169871,None,253.6749697169871,None,253.6749697169871,None,253.6749697169871,None,-0.02375,0.0225,1,0,0,rectangle,0.015615475247614086,None,253.6749697169871,None,253.6749697169871,None,253.6749697169871,None,,001,2020_Oct_12_1209,Simcolourproject_2stim_asymm_v1,2020.1.2,59.94875269420661,
4,4,PF,0,70,70,70,254.3110386140179,254.5755841510254,254.3110386140179,None,254.82578606402967,None,254.82578606402967,None,254.82578606402967,None,254.82578606402967,None,254.82578606402967,None,254.82578606402967,None,254.82578606402967,None,254.82578606402967,None,0.11125,0.05125,1,0,0,response1disk,0.015551724180113524,None,254.82578606402967,None,254.82578606402967,None,None,None,None,None,None,None,None,None,None,None,None,None,None,None,None,None,0.11125,0.05125,1,0,0,response1disk,None,None,None,None,None,None,256.4434113680036,None,256.4434113680036,None,256.4434113680036,None,256.4434113680036,None,256.4434113680036,None,256.4434113680036,None,256.4434113680036,None,256.4434113680036,None,-0.00625,0.01625,1,0,0,rectangle,0.0138634312315844,None,256.4434113680036,None,256.4434113680036,None,256.4434113680036,None,,001,2020_Oct_12_1209,Simcolourproject_2stim_asymm_v1,2020.1.2,59.94875269420661,
8,3,PF,0,71,71,71,256.97924135200446,257.2441998790018,256.97924135200446,None,257.4942798030097,None,257.4942798030097,None,257.4942798030097,None,257.4942798030097,None,257.4942798030097,None,257.4942798030097,None,257.4942798030097,None,257.4942798030097,None,-0.07125,-0.1075,1,0,0,response5disk,0.015718215086963028,None,257.4942798030097,None,257.4942798030097,None,None,None,None,None,None,None,None,None,None,None,None,None,None,None,None,None,-0.07125,-0.1075,1,0,0,response5disk,None,None,None,None,None,None,258.16161077999277,None,258.16161077999277,None,258.16161077999277,None,258.16161077999277,None,258.16161077999277,None,258.16161077999277,None,258.16161077999277,None,258.16161077999277,None,-0.01125,-0.01,1,0,0,rectangle,0.00925278919748962,None,258.16161077999277,None,258.16161077999277,None,258.16161077999277,None,,001,2020_Oct_12_1209,Simcolourproject_2stim_asymm_v1,2020.1.2,59.94875269420661,
2,9,FF,0,72,72,72,258.79747779102763,259.061271565035,258.79747779102763,None,259.31113431201084,None,259.31113431201084,None,259.31113431201084,None,259.31113431201084,None,259.31113431201084,None,259.31113431201084,None,259.31113431201084,None,259.31113431201084,None,0.04375,-0.14125,1,0,0,response3disk,0.015552625060081482,None,259.31113431201084,None,259.31113431201084,None,None,None,None,None,None,None,None,None,None,None,None,None,None,None,None,None,0.04375,-0.14125,1,0,0,response3disk,None,None,None,None,None,None,259.94513330899645,None,259.94513330899645,None,259.94513330899645,None,259.94513330899645,None,259.94513330899645,None,259.94513330899645,None,259.94513330899645,None,259.94513330899645,None,0.005,-0.01625,1,0,0,rectangle,0.014727065165061504,None,259.94513330899645,None,259.94513330899645,None,259.94513330899645,None,,001,2020_Oct_12_1209,Simcolourproject_2stim_asymm_v1,2020.1.2,59.94875269420661,
7,3,FF,0,73,73,73,260.5813221290009,260.8452085410245,260.5813221290009,None,261.09489860601025,None,261.09489860601025,None,261.09489860601025,None,261.09489860601025,None,261.09489860601025,None,261.09489860601025,None,261.09489860601025,None,261.09489860601025,None,-0.07625,0.07125,1,0,0,response7disk,0.015536638151388615,None,261.09489860601025,None,261.09489860601025,None,None,None,None,None,None,None,None,None,None,None,None,None,None,None,None,None,-0.07625,0.07125,1,0,0,response7disk,None,None,None,None,None,None,261.7626993810409,None,261.7626993810409,None,261.7626993810409,None,261.7626993810409,None,261.7626993810409,None,261.7626993810409,None,261.7626993810409,None,261.7626993810409,None,-0.0125,0.0025,1,0,0,rectangle,0.013834517274517566,None,261.7626993810409,None,261.7626993810409,None,261.7626993810409,None,,001,2020_Oct_12_1209,Simcolourproject_2stim_asymm_v1,2020.1.2,59.94875269420661,
9,1,PF,0,74,74,74,262.37933321803575,262.62923368101474,262.37933321803575,None,262.88002652302384,None,262.88002652302384,None,262.88002652302384,None,262.88002652302384,None,262.88002652302384,None,262.88002652302384,None,262.88002652302384,None,262.88002652302384,None,0.06,-0.06875,1,0,0,response3disk,0.015804123191628605,None,262.88002652302384,None,262.88002652302384,None,None,None,None,None,None,None,None,None,None,None,None,None,None,None,None,None,0.06,-0.06875,1,0,0,response3disk,None,None,None,None,None,None,263.44694044301286,None,263.44694044301286,None,263.44694044301286,None,263.44694044301286,None,263.44694044301286,None,263.44694044301286,None,263.44694044301286,None,263.44694044301286,None,-0.015,-0.005,1,0,0,rectangle,0.014238611212931573,None,263.44694044301286,None,263.44694044301286,None,263.44694044301286,None,,001,2020_Oct_12_1209,Simcolourproject_2stim_asymm_v1,2020.1.2,59.94875269420661,
4,9,PF,0,75,75,75,264.01538753003115,264.2803226769902,264.01538753003115,None,264.53062240302097,None,264.53062240302097,None,264.53062240302097,None,264.53062240302097,None,264.53062240302097,None,264.53062240302097,None,264.53062240302097,None,264.53062240302097,None,-0.07375,-0.1425,1,0,0,response5disk,0.015522788045927882,None,264.53062240302097,None,264.53062240302097,None,None,None,None,None,None,None,None,None,None,None,None,None,None,None,None,None,-0.07375,-0.1425,1,0,0,response5disk,None,None,None,None,None,None,265.0638683750294,None,265.0638683750294,None,265.0638683750294,None,265.0638683750294,None,265.0638683750294,None,265.0638683750294,None,265.0638683750294,None,265.0638683750294,None,-0.00875,-0.00125,1,0,0,rectangle,0.014931881276424974,None,265.0638683750294,None,265.0638683750294,None,265.0638683750294,None,,001,2020_Oct_12_1209,Simcolourproject_2stim_asymm_v1,2020.1.2,59.94875269420661,
1,1,PF,0,76,76,76,265.5496904620086,265.81386260001455,265.5496904620086,None,266.0647639390081,None,266.0647639390081,None,266.0647639390081,None,266.0647639390081,None,266.0647639390081,None,266.0647639390081,None,266.0647639390081,None,266.0647639390081,None,-0.075,0.08875,1,0,0,response7disk,0.015534258098341525,None,266.0647639390081,None,266.0647639390081,None,None,None,None,None,None,None,None,None,None,None,None,None,None,None,None,None,-0.075,0.08875,1,0,0,response7disk,None,None,None,None,None,None,266.7482359620044,None,266.7482359620044,None,266.7482359620044,None,266.7482359620044,None,266.7482359620044,None,266.7482359620044,None,266.7482359620044,None,266.7482359620044,None,-0.03,0.0225,1,0,0,rectangle,0.011849242262542248,None,266.7482359620044,None,266.7482359620044,None,266.7482359620044,None,,001,2020_Oct_12_1209,Simcolourproject_2stim_asymm_v1,2020.1.2,59.94875269420661,
4,3,FF,0,77,77,77,267.33373995200964,267.59864784398815,267.33373995200964,None,267.8480643290095,None,267.8480643290095,None,267.8480643290095,None,267.8480643290095,None,267.8480643290095,None,267.8480643290095,None,267.8480643290095,None,267.8480643290095,None,0.0775,-0.02875,1,0,0,response3disk,0.01555650809314102,None,267.8480643290095,None,267.8480643290095,None,None,None,None,None,None,None,None,None,None,None,None,None,None,None,None,None,0.0775,-0.02875,1,0,0,response3disk,None,None,None,None,None,None,268.5658385690185,None,268.5658385690185,None,268.5658385690185,None,268.5658385690185,None,268.5658385690185,None,268.5658385690185,None,268.5658385690185,None,268.5658385690185,None,0.00375,-0.00125,1,0,0,rectangle,0.014203767292201519,None,268.5658385690185,None,268.5658385690185,None,268.5658385690185,None,,001,2020_Oct_12_1209,Simcolourproject_2stim_asymm_v1,2020.1.2,59.94875269420661,
8,4,PF,0,78,78,78,269.11817022098694,269.3825106510194,269.11817022098694,None,269.6328326280345,None,269.6328326280345,None,269.6328326280345,None,269.6328326280345,None,269.6328326280345,None,269.6328326280345,None,269.6328326280345,None,269.6328326280345,None,0.10375,0.04,1,0,0,response1disk,0.015554895158857107,None,269.6328326280345,None,269.6328326280345,None,None,None,None,None,None,None,None,None,None,None,None,None,None,None,None,None,0.10375,0.04,1,0,0,response1disk,None,None,None,None,None,None,270.19994860503357,None,270.19994860503357,None,270.19994860503357,None,270.19994860503357,None,270.19994860503357,None,270.19994860503357,None,270.19994860503357,None,270.19994860503357,None,0.00375,0.0,1,0,0,rectangle,0.01477569225244224,None,270.19994860503357,None,270.19994860503357,None,270.19994860503357,None,,001,2020_Oct_12_1209,Simcolourproject_2stim_asymm_v1,2020.1.2,59.94875269420661,
3,9,PF,0,79,79,79,270.76922670804197,271.03325200499967,270.76922670804197,None,271.283738247992,None,271.283738247992,None,271.283738247992,None,271.283738247992,None,271.283738247992,None,271.283738247992,None,271.283738247992,None,271.283738247992,None,-0.04125,-0.1,1,0,0,response5disk,0.015528437099419534,None,271.283738247992,None,271.283738247992,None,None,None,None,None,None,None,None,None,None,None,None,None,None,None,None,None,-0.04125,-0.1,1,0,0,response5disk,None,None,None,None,None,None,271.76676960202167,None,271.76676960202167,None,271.76676960202167,None,271.76676960202167,None,271.76676960202167,None,271.76676960202167,None,271.76676960202167,None,271.76676960202167,None,-0.03375,0.00125,1,0,0,rectangle,0.014287882193457335,None,271.76676960202167,None,271.76676960202167,None,271.76676960202167,None,,001,2020_Oct_12_1209,Simcolourproject_2stim_asymm_v1,2020.1.2,59.94875269420661,
2,5,FF,0,80,80,80,272.2371174659929,272.5007238800172,272.2371174659929,None,272.75107439700514,None,272.75107439700514,None,272.75107439700514,None,272.75107439700514,None,272.75107439700514,None,272.75107439700514,None,272.75107439700514,None,272.75107439700514,None,-0.11875,-0.0625,1,0,0,response5disk,0.01545666006859392,None,272.75107439700514,None,272.75107439700514,None,None,None,None,None,None,None,None,None,None,None,None,None,None,None,None,None,-0.11875,-0.0625,1,0,0,response5disk,None,None,None,None,None,None,273.63382212404395,None,273.63382212404395,None,273.63382212404395,None,273.63382212404395,None,273.63382212404395,None,273.63382212404395,None,273.63382212404395,None,273.63382212404395,None,-0.03,0.005,1,0,0,rectangle,0.014646469207946211,None,273.63382212404395,None,273.63382212404395,None,273.63382212404395,None,,001,2020_Oct_12_1209,Simcolourproject_2stim_asymm_v1,2020.1.2,59.94875269420661,
7,3,PF,0,81,81,81,274.20309482404264,274.46853901899885,274.20309482404264,None,274.7185131490114,None,274.7185131490114,None,274.7185131490114,None,274.7185131490114,None,274.7185131490114,None,274.7185131490114,None,274.7185131490114,None,274.7185131490114,None,-0.03125,-0.1125,1,0,0,response5disk,0.015531985089182854,None,274.7185131490114,None,274.7185131490114,None,None,None,None,None,None,None,None,None,None,None,None,None,None,None,None,None,-0.03125,-0.1125,1,0,0,response5disk,None,None,None,None,None,None,288.5284171809908,None,288.5284171809908,None,288.5284171809908,None,288.5284171809908,None,288.5284171809908,None,288.5284171809908,None,288.5284171809908,None,288.5284171809908,None,-0.02,0.01375,1,0,0,rectangle,0.011219961219467223,None,288.5284171809908,None,288.5284171809908,None,288.5284171809908,None,,001,2020_Oct_12_1209,Simcolourproject_2stim_asymm_v1,2020.1.2,59.94875269420661,
1,5,FF,0,82,82,82,288.9612530859886,289.2260920010158,288.9612530859886,None,289.47773030702956,None,289.47773030702956,None,289.47773030702956,None,289.47773030702956,None,289.47773030702956,None,289.47773030702956,None,289.47773030702956,None,289.47773030702956,None,-0.0625,0.08875,1,0,0,response7disk,0.015497314103413373,None,289.47773030702956,None,289.47773030702956,None,None,None,None,None,None,None,None,None,None,None,None,None,None,None,None,None,-0.0625,0.08875,1,0,0,response7disk,None,None,None,None,None,None,290.47700707399053,None,290.47700707399053,None,290.47700707399053,None,290.47700707399053,None,290.47700707399053,None,290.47700707399053,None,290.47700707399053,None,290.47700707399053,None,-0.02375,-0.00875,1,0,0,rectangle,0.007308209198527038,None,290.47700707399053,None,290.47700707399053,None,290.47700707399053,None,,001,2020_Oct_12_1209,Simcolourproject_2stim_asymm_v1,2020.1.2,59.94875269420661,
8,2,PF,0,83,83,83,290.911187085032,291.1761396230431,290.911187085032,None,291.4258599280147,None,291.4258599280147,None,291.4258599280147,None,291.4258599280147,None,291.4258599280147,None,291.4258599280147,None,291.4258599280147,None,291.4258599280147,None,0.035,-0.105,1,0,0,response3disk,0.015559778141323477,None,291.4258599280147,None,291.4258599280147,None,None,None,None,None,None,None,None,None,None,None,None,None,None,None,None,None,0.035,-0.105,1,0,0,response3disk,None,None,None,None,None,None,292.2095448800246,None,292.2095448800246,None,292.2095448800246,None,292.2095448800246,None,292.2095448800246,None,292.2095448800246,None,292.2095448800246,None,292.2095448800246,None,-0.0025,-0.02,1,0,0,rectangle,0.014177428209222853,None,292.2095448800246,None,292.2095448800246,None,292.2095448800246,None,,001,2020_Oct_12_1209,Simcolourproject_2stim_asymm_v1,2020.1.2,59.94875269420661,
4,4,FF,0,84,84,84,292.8459812820074,293.1104352840339,292.8459812820074,None,293.3607825220097,None,293.3607825220097,None,293.3607825220097,None,293.3607825220097,None,293.3607825220097,None,293.3607825220097,None,293.3607825220097,None,293.3607825220097,None,0.12125,-0.085,1,0,0,response3disk,0.015552910102996975,None,293.3607825220097,None,293.3607825220097,None,None,None,None,None,None,None,None,None,None,None,None,None,None,None,None,None,0.12125,-0.085,1,0,0,response3disk,None,None,None,None,None,None,293.92701775202295,None,293.92701775202295,None,293.92701775202295,None,293.92701775202295,None,293.92701775202295,None,293.92701775202295,None,293.92701775202295,None,293.92701775202295,None,0.0,-0.0125,1,0,0,rectangle,0.01422151125734672,None,293.92701775202295,None,293.92701775202295,None,293.92701775202295,None,,001,2020_Oct_12_1209,Simcolourproject_2stim_asymm_v1,2020.1.2,59.94875269420661,
2,1,FF,0,85,85,85,295.46362253901316,295.728671105986,295.46362253901316,None,295.9780946460087,None,295.9780946460087,None,295.9780946460087,None,295.9780946460087,None,295.9780946460087,None,295.9780946460087,None,295.9780946460087,None,295.9780946460087,None,0.04375,0.08375,1,0,0,response1disk,0.015553270117379725,None,295.9780946460087,None,295.9780946460087,None,None,None,None,None,None,None,None,None,None,None,None,None,None,None,None,None,0.04375,0.08375,1,0,0,response1disk,None,None,None,None,None,None,296.49530432303436,None,296.49530432303436,None,296.49530432303436,None,296.49530432303436,None,296.49530432303436,None,296.49530432303436,None,296.49530432303436,None,296.49530432303436,None,0.00875,-0.02375,1,0,0,rectangle,0.01480582426302135,None,296.49530432303436,None,296.49530432303436,None,296.49530432303436,None,,001,2020_Oct_12_1209,Simcolourproject_2stim_asymm_v1,2020.1.2,59.94875269420661,
8,7,FF,0,86,86,86,296.96475537499646,297.22898016299587,296.96475537499646,None,297.47937153000385,None,297.47937153000385,None,297.47937153000385,None,297.47937153000385,None,297.47937153000385,None,297.47937153000385,None,297.47937153000385,None,297.47937153000385,None,-0.05625,-0.1375,1,0,0,response5disk,0.015555817109998316,None,297.47937153000385,None,297.47937153000385,None,None,None,None,None,None,None,None,None,None,None,None,None,None,None,None,None,-0.05625,-0.1375,1,0,0,response5disk,None,None,None,None,None,None,298.063044938026,None,298.063044938026,None,298.063044938026,None,298.063044938026,None,298.063044938026,None,298.063044938026,None,298.063044938026,None,298.063044938026,None,-0.0125,-0.00875,1,0,0,rectangle,0.014867063262499869,None,298.063044938026,None,298.063044938026,None,298.063044938026,None,,001,2020_Oct_12_1209,Simcolourproject_2stim_asymm_v1,2020.1.2,59.94875269420661,
,,,,,,,298.5986350150197,298.8633606299991,298.5986350150197,None,,,,,,,,,,,,,,,,,,,,,,,,,,,,,,,,,,,,,,,,,,,,,,,,,,,,,,,,,,,,,,,,,,,,,,,,,,,,,,,,,,,,,,,,,,,,,
