Colour_1,Colour_2,Ecc,trials.thisRepN,trials.thisTrialN,trials.thisN,trials.thisIndex,Circle_1.started,Circle_1.stopped,centre_cross4.started,centre_cross4.stopped,response1disk.started,response1disk.stopped,response2disk.started,response2disk.stopped,response3disk.started,response3disk.stopped,response4disk.started,response4disk.stopped,response5disk.started,response5disk.stopped,response6disk.started,response6disk.stopped,response7disk.started,response7disk.stopped,response8disk.started,response8disk.stopped,mouse.x,mouse.y,mouse.leftButton,mouse.midButton,mouse.rightButton,mouse.clicked_name,mouse.started,mouse.stopped,Circle_2.started,Circle_2.stopped,text_23.started,text_23.stopped,response1disk_3.started,response1disk_3.stopped,response2disk_3.started,response2disk_3.stopped,response3disk_3.started,response3disk_3.stopped,response4disk_3.started,response4disk_3.stopped,response5disk_3.started,response5disk_3.stopped,response6disk_3.started,response6disk_3.stopped,response7disk_3.started,response7disk_3.stopped,response8disk_3.started,response8disk_3.stopped,mouse_3.x,mouse_3.y,mouse_3.leftButton,mouse_3.midButton,mouse_3.rightButton,mouse_3.clicked_name,mouse_3.started,mouse_3.stopped,text_26.started,text_26.stopped,rectangle_2.started,rectangle_2.stopped,response1disk_2.started,response1disk_2.stopped,response2disk_2.started,response2disk_2.stopped,response3disk_2.started,response3disk_2.stopped,response4disk_2.started,response4disk_2.stopped,response5disk_2.started,response5disk_2.stopped,response6disk_2.started,response6disk_2.stopped,response7disk_2.started,response7disk_2.stopped,response8disk_2.started,response8disk_2.stopped,mouse_2.x,mouse_2.y,mouse_2.leftButton,mouse_2.midButton,mouse_2.rightButton,mouse_2.clicked_name,mouse_2.started,mouse_2.stopped,rectangle.started,rectangle.stopped,text_25.started,text_25.stopped,text_24.started,text_24.stopped,participant,session,date,expName,psychopyVersion,frameRate,
6,6,PF,0,0,0,0,67.31480945902877,67.58114290802041,67.31480945902877,None,67.81400556798326,None,67.81400556798326,None,67.81400556798326,None,67.81400556798326,None,67.81400556798326,None,67.81400556798326,None,67.81400556798326,None,67.81400556798326,None,-0.035,-0.1325,1,0,0,response5disk,0.015326394699513912,None,67.81400556798326,None,67.81400556798326,None,None,None,None,None,None,None,None,None,None,None,None,None,None,None,None,None,-0.035,-0.1325,1,0,0,response5disk,None,None,None,None,None,None,69.74821728101233,None,69.74821728101233,None,69.74821728101233,None,69.74821728101233,None,69.74821728101233,None,69.74821728101233,None,69.74821728101233,None,69.74821728101233,None,-0.01,-0.03,1,0,0,rectangle,0.011281129089184105,None,69.74821728101233,None,69.74821728101233,None,69.74821728101233,None,,001,2020_Oct_12_1255,Simcolourproject_2stim_asymm_v1,2020.1.2,60.22211722968038,
1,3,PF,0,1,1,1,70.18120749399532,70.43147874099668,70.18120749399532,None,70.68151614599628,None,70.68151614599628,None,70.68151614599628,None,70.68151614599628,None,70.68151614599628,None,70.68151614599628,None,70.68151614599628,None,70.68151614599628,None,0.05625,-0.12625,1,0,0,response3disk,0.015511823701672256,None,70.68151614599628,None,70.68151614599628,None,None,None,None,None,None,None,None,None,None,None,None,None,None,None,None,None,0.05625,-0.12625,1,0,0,response3disk,None,None,None,None,None,None,70.98291746602627,None,70.98291746602627,None,70.98291746602627,None,70.98291746602627,None,70.98291746602627,None,70.98291746602627,None,70.98291746602627,None,70.98291746602627,None,-0.0025,-0.015,1,0,0,rectangle,0.014029085461515933,None,70.98291746602627,None,70.98291746602627,None,70.98291746602627,None,,001,2020_Oct_12_1255,Simcolourproject_2stim_asymm_v1,2020.1.2,60.22211722968038,
1,2,FF,0,2,2,2,71.3823422670248,71.6327228799928,71.3823422670248,None,71.8833955170121,None,71.8833955170121,None,71.8833955170121,None,71.8833955170121,None,71.8833955170121,None,71.8833955170121,None,71.8833955170121,None,71.8833955170121,None,0.08875,-0.06125,1,0,0,response3disk,0.01585873868316412,None,71.8833955170121,None,71.8833955170121,None,None,None,None,None,None,None,None,None,None,None,None,None,None,None,None,None,0.08875,-0.06125,1,0,0,response3disk,None,None,None,None,None,None,72.26609796303092,None,72.26609796303092,None,72.26609796303092,None,72.26609796303092,None,72.26609796303092,None,72.26609796303092,None,72.26609796303092,None,72.26609796303092,None,-0.0025,0.00125,1,0,0,rectangle,0.007954703411087394,None,72.26609796303092,None,72.26609796303092,None,72.26609796303092,None,,001,2020_Oct_12_1255,Simcolourproject_2stim_asymm_v1,2020.1.2,60.22211722968038,
3,8,PF,0,3,3,3,72.6659714319976,72.91628168500029,72.6659714319976,None,73.16743869101629,None,73.16743869101629,None,73.16743869101629,None,73.16743869101629,None,73.16743869101629,None,73.16743869101629,None,73.16743869101629,None,73.16743869101629,None,0.0525,-0.11125,1,0,0,response3disk,0.015690527739934623,None,73.16743869101629,None,73.16743869101629,None,None,None,None,None,None,None,None,None,None,None,None,None,None,None,None,None,0.0525,-0.11125,1,0,0,response3disk,None,None,None,None,None,None,73.48439791001147,None,73.48439791001147,None,73.48439791001147,None,73.48439791001147,None,73.48439791001147,None,73.48439791001147,None,73.48439791001147,None,73.48439791001147,None,-0.005,-0.005,1,0,0,rectangle,0.012341820343863219,None,73.48439791001147,None,73.48439791001147,None,73.48439791001147,None,,001,2020_Oct_12_1255,Simcolourproject_2stim_asymm_v1,2020.1.2,60.22211722968038,
3,3,PF,0,4,4,4,74.05168108298676,74.31660178903257,74.05168108298676,None,74.56793474103324,None,74.56793474103324,None,74.56793474103324,None,74.56793474103324,None,74.56793474103324,None,74.56793474103324,None,74.56793474103324,None,74.56793474103324,None,0.09375,0.0525,1,0,0,response1disk,0.015801173693034798,None,74.56793474103324,None,74.56793474103324,None,None,None,None,None,None,None,None,None,None,None,None,None,None,None,None,None,0.09375,0.0525,1,0,0,response1disk,None,None,None,None,None,None,74.91697410400957,None,74.91697410400957,None,74.91697410400957,None,74.91697410400957,None,74.91697410400957,None,74.91697410400957,None,74.91697410400957,None,74.91697410400957,None,0.0175,-0.00125,1,0,0,rectangle,0.010701951454393566,None,74.91697410400957,None,74.91697410400957,None,74.91697410400957,None,,001,2020_Oct_12_1255,Simcolourproject_2stim_asymm_v1,2020.1.2,60.22211722968038,
6,1,FF,0,5,5,5,75.3194929260062,75.58388105698396,75.3194929260062,None,75.83405456499895,None,75.83405456499895,None,75.83405456499895,None,75.83405456499895,None,75.83405456499895,None,75.83405456499895,None,75.83405456499895,None,75.83405456499895,None,0.11,-0.05625,1,0,0,response3disk,0.015575944737065583,None,75.83405456499895,None,75.83405456499895,None,None,None,None,None,None,None,None,None,None,None,None,None,None,None,None,None,0.11,-0.05625,1,0,0,response3disk,None,None,None,None,None,None,76.11977210699115,None,76.11977210699115,None,76.11977210699115,None,76.11977210699115,None,76.11977210699115,None,76.11977210699115,None,76.11977210699115,None,76.11977210699115,None,0.0175,-0.01375,1,0,0,rectangle,0.01227281236788258,None,76.11977210699115,None,76.11977210699115,None,76.11977210699115,None,,001,2020_Oct_12_1255,Simcolourproject_2stim_asymm_v1,2020.1.2,60.22211722968038,
9,8,FF,0,6,6,6,76.4527112999931,76.71803200303111,76.4527112999931,None,76.96891673502978,None,76.96891673502978,None,76.96891673502978,None,76.96891673502978,None,76.96891673502978,None,76.96891673502978,None,76.96891673502978,None,76.96891673502978,None,-0.04,-0.10125,1,0,0,response5disk,0.015772809740155935,None,76.96891673502978,None,76.96891673502978,None,None,None,None,None,None,None,None,None,None,None,None,None,None,None,None,None,-0.04,-0.10125,1,0,0,response5disk,None,None,None,None,None,None,77.35158426500857,None,77.35158426500857,None,77.35158426500857,None,77.35158426500857,None,77.35158426500857,None,77.35158426500857,None,77.35158426500857,None,77.35158426500857,None,-0.02125,-0.00125,1,0,0,rectangle,0.006316309387329966,None,77.35158426500857,None,77.35158426500857,None,77.35158426500857,None,,001,2020_Oct_12_1255,Simcolourproject_2stim_asymm_v1,2020.1.2,60.22211722968038,
5,7,FF,0,7,7,7,77.68935169099132,77.95206824998604,77.68935169099132,None,78.20142724300968,None,78.20142724300968,None,78.20142724300968,None,78.20142724300968,None,78.20142724300968,None,78.20142724300968,None,78.20142724300968,None,78.20142724300968,None,0.0525,-0.13625,1,0,0,response3disk,0.015469993755687028,None,78.20142724300968,None,78.20142724300968,None,None,None,None,None,None,None,None,None,None,None,None,None,None,None,None,None,0.0525,-0.13625,1,0,0,response3disk,None,None,None,None,None,None,78.48521747603081,None,78.48521747603081,None,78.48521747603081,None,78.48521747603081,None,78.48521747603081,None,78.48521747603081,None,78.48521747603081,None,78.48521747603081,None,-0.005,-0.0175,1,0,0,rectangle,0.009098014328628778,None,78.48521747603081,None,78.48521747603081,None,78.48521747603081,None,,001,2020_Oct_12_1255,Simcolourproject_2stim_asymm_v1,2020.1.2,60.22211722968038,
5,4,FF,0,8,8,8,78.88815131102456,79.15232567902422,78.88815131102456,None,79.40349970402895,None,79.40349970402895,None,79.40349970402895,None,79.40349970402895,None,79.40349970402895,None,79.40349970402895,None,79.40349970402895,None,79.40349970402895,None,-0.045,0.1075,1,0,0,response7disk,0.015828977688215673,None,79.40349970402895,None,79.40349970402895,None,None,None,None,None,None,None,None,None,None,None,None,None,None,None,None,None,-0.045,0.1075,1,0,0,response7disk,None,None,None,None,None,None,80.00403766898671,None,80.00403766898671,None,80.00403766898671,None,80.00403766898671,None,80.00403766898671,None,80.00403766898671,None,80.00403766898671,None,80.00403766898671,None,0.01,0.01375,1,0,0,rectangle,0.013177814311347902,None,80.00403766898671,None,80.00403766898671,None,80.00403766898671,None,,001,2020_Oct_12_1255,Simcolourproject_2stim_asymm_v1,2020.1.2,60.22211722968038,
2,1,PF,0,9,9,9,80.41975457698572,80.67033341701608,80.41975457698572,None,80.92082238500006,None,80.92082238500006,None,80.92082238500006,None,80.92082238500006,None,80.92082238500006,None,80.92082238500006,None,80.92082238500006,None,80.92082238500006,None,0.08625,0.04625,1,0,0,response1disk,0.015483141702134162,None,80.92082238500006,None,80.92082238500006,None,None,None,None,None,None,None,None,None,None,None,None,None,None,None,None,None,0.08625,0.04625,1,0,0,response1disk,None,None,None,None,None,None,81.8035170660005,None,81.8035170660005,None,81.8035170660005,None,81.8035170660005,None,81.8035170660005,None,81.8035170660005,None,81.8035170660005,None,81.8035170660005,None,0.0225,-0.01125,1,0,0,rectangle,0.010851412371266633,None,81.8035170660005,None,81.8035170660005,None,81.8035170660005,None,,001,2020_Oct_12_1255,Simcolourproject_2stim_asymm_v1,2020.1.2,60.22211722968038,
7,9,PF,0,10,10,10,82.22291186999064,82.4872022549971,82.22291186999064,None,82.73774118802976,None,82.73774118802976,None,82.73774118802976,None,82.73774118802976,None,82.73774118802976,None,82.73774118802976,None,82.73774118802976,None,82.73774118802976,None,0.1025,-0.06375,1,0,0,response3disk,0.015447829733602703,None,82.73774118802976,None,82.73774118802976,None,82.97040438871481,None,82.97040438871481,None,82.97040438871481,None,82.97040438871481,None,82.97040438871481,None,82.97040438871481,None,82.97040438871481,None,82.97040438871481,None,0.1025,-0.06375,1,0,0,response3disk,0.0010732977534644306,None,82.97040438871481,None,82.97040438871481,None,83.00407187902601,None,83.00407187902601,None,83.00407187902601,None,83.00407187902601,None,83.00407187902601,None,83.00407187902601,None,83.00407187902601,None,83.00407187902601,None,0.03625,-0.03625,1,0,0,rectangle,0.004567643394693732,None,83.00407187902601,None,83.00407187902601,None,83.00407187902601,None,,001,2020_Oct_12_1255,Simcolourproject_2stim_asymm_v1,2020.1.2,60.22211722968038,
9,2,FF,0,11,11,11,83.45746020798106,83.72076694702264,83.45746020798106,None,83.97215979901375,None,83.97215979901375,None,83.97215979901375,None,83.97215979901375,None,83.97215979901375,None,83.97215979901375,None,83.97215979901375,None,83.97215979901375,None,0.0575,-0.12875,1,0,0,response3disk,0.01577475172234699,None,83.97215979901375,None,83.97215979901375,None,None,None,None,None,None,None,None,None,None,None,None,None,None,None,None,None,0.0575,-0.12875,1,0,0,response3disk,None,None,None,None,None,None,84.30451189202722,None,84.30451189202722,None,84.30451189202722,None,84.30451189202722,None,84.30451189202722,None,84.30451189202722,None,84.30451189202722,None,84.30451189202722,None,-0.005,-0.00625,1,0,0,rectangle,0.015475864347536117,None,84.30451189202722,None,84.30451189202722,None,84.30451189202722,None,,001,2020_Oct_12_1255,Simcolourproject_2stim_asymm_v1,2020.1.2,60.22211722968038,
5,6,FF,0,12,12,12,84.72599987703143,84.98936503898585,84.72599987703143,None,85.23965768498601,None,85.23965768498601,None,85.23965768498601,None,85.23965768498601,None,85.23965768498601,None,85.23965768498601,None,85.23965768498601,None,85.23965768498601,None,-0.055,-0.10625,1,0,0,response5disk,0.01579085673438385,None,85.23965768498601,None,85.23965768498601,None,None,None,None,None,None,None,None,None,None,None,None,None,None,None,None,None,-0.055,-0.10625,1,0,0,response5disk,None,None,None,None,None,None,85.57209344499279,None,85.57209344499279,None,85.57209344499279,None,85.57209344499279,None,85.57209344499279,None,85.57209344499279,None,85.57209344499279,None,85.57209344499279,None,-0.01,-0.01,1,0,0,rectangle,0.010515452362596989,None,85.57209344499279,None,85.57209344499279,None,85.57209344499279,None,,001,2020_Oct_12_1255,Simcolourproject_2stim_asymm_v1,2020.1.2,60.22211722968038,
4,2,FF,0,13,13,13,85.92403177300002,86.1892536280211,85.92403177300002,None,86.44066090101842,None,86.44066090101842,None,86.44066090101842,None,86.44066090101842,None,86.44066090101842,None,86.44066090101842,None,86.44066090101842,None,86.44066090101842,None,0.09125,-0.0425,1,0,0,response3disk,0.015745701733976603,None,86.44066090101842,None,86.44066090101842,None,None,None,None,None,None,None,None,None,None,None,None,None,None,None,None,None,0.09125,-0.0425,1,0,0,response3disk,None,None,None,None,None,None,86.83934367500478,None,86.83934367500478,None,86.83934367500478,None,86.83934367500478,None,86.83934367500478,None,86.83934367500478,None,86.83934367500478,None,86.83934367500478,None,-0.0025,-0.00125,1,0,0,rectangle,0.011033552407752723,None,86.83934367500478,None,86.83934367500478,None,86.83934367500478,None,,001,2020_Oct_12_1255,Simcolourproject_2stim_asymm_v1,2020.1.2,60.22211722968038,
2,2,PF,0,14,14,14,87.20908601302654,87.47326126601547,87.20908601302654,None,87.72422141500283,None,87.72422141500283,None,87.72422141500283,None,87.72422141500283,None,87.72422141500283,None,87.72422141500283,None,87.72422141500283,None,87.72422141500283,None,-0.1075,0.05,1,0,0,response7disk,0.0156681917142123,None,87.72422141500283,None,87.72422141500283,None,None,None,None,None,None,None,None,None,None,None,None,None,None,None,None,None,-0.1075,0.05,1,0,0,response7disk,None,None,None,None,None,None,88.29052467603469,None,88.29052467603469,None,88.29052467603469,None,88.29052467603469,None,88.29052467603469,None,88.29052467603469,None,88.29052467603469,None,88.29052467603469,None,-0.00125,0.0,1,0,0,rectangle,0.01125619641970843,None,88.29052467603469,None,88.29052467603469,None,88.29052467603469,None,,001,2020_Oct_12_1255,Simcolourproject_2stim_asymm_v1,2020.1.2,60.22211722968038,
1,9,PF,0,15,15,15,88.70955755200703,88.97425283701159,88.70955755200703,None,89.22454774699872,None,89.22454774699872,None,89.22454774699872,None,89.22454774699872,None,89.22454774699872,None,89.22454774699872,None,89.22454774699872,None,89.22454774699872,None,0.04875,-0.1075,1,0,0,response3disk,0.01586678874446079,None,89.22454774699872,None,89.22454774699872,None,None,None,None,None,None,None,None,None,None,None,None,None,None,None,None,None,0.04875,-0.1075,1,0,0,response3disk,None,None,None,None,None,None,126.70920019800542,None,126.70920019800542,None,126.70920019800542,None,126.70920019800542,None,126.70920019800542,None,126.70920019800542,None,126.70920019800542,None,126.70920019800542,None,-0.00125,-0.005,1,0,0,rectangle,0.007430037367157638,None,126.70920019800542,None,126.70920019800542,None,126.70920019800542,None,,001,2020_Oct_12_1255,Simcolourproject_2stim_asymm_v1,2020.1.2,60.22211722968038,
5,8,FF,0,16,16,16,127.07627958001103,127.32569780800259,127.07627958001103,None,127.57656507502543,None,127.57656507502543,None,127.57656507502543,None,127.57656507502543,None,127.57656507502543,None,127.57656507502543,None,127.57656507502543,None,127.57656507502543,None,-0.055,-0.1375,1,0,0,response5disk,0.01563757174881175,None,127.57656507502543,None,127.57656507502543,None,None,None,None,None,None,None,None,None,None,None,None,None,None,None,None,None,-0.055,-0.1375,1,0,0,response5disk,None,None,None,None,None,None,127.89179802499712,None,127.89179802499712,None,127.89179802499712,None,127.89179802499712,None,127.89179802499712,None,127.89179802499712,None,127.89179802499712,None,127.89179802499712,None,-0.0125,0.0,1,0,0,rectangle,0.01437649637227878,None,127.89179802499712,None,127.89179802499712,None,127.89179802499712,None,,001,2020_Oct_12_1255,Simcolourproject_2stim_asymm_v1,2020.1.2,60.22211722968038,
9,9,FF,0,17,17,17,128.22838897898328,128.49327907699626,128.22838897898328,None,128.74292679002974,None,128.74292679002974,None,128.74292679002974,None,128.74292679002974,None,128.74292679002974,None,128.74292679002974,None,128.74292679002974,None,128.74292679002974,None,-0.10125,-0.05875,1,0,0,response5disk,0.01563577470369637,None,128.74292679002974,None,128.74292679002974,None,None,None,None,None,None,None,None,None,None,None,None,None,None,None,None,None,-0.10125,-0.05875,1,0,0,response5disk,None,None,None,None,None,None,129.00919547502417,None,129.00919547502417,None,129.00919547502417,None,129.00919547502417,None,129.00919547502417,None,129.00919547502417,None,129.00919547502417,None,129.00919547502417,None,-0.00875,0.00625,1,0,0,rectangle,0.015183668350800872,None,129.00919547502417,None,129.00919547502417,None,129.00919547502417,None,,001,2020_Oct_12_1255,Simcolourproject_2stim_asymm_v1,2020.1.2,60.22211722968038,
6,7,FF,0,18,18,18,129.31129362701904,129.57623615203192,129.31129362701904,None,129.82691727700876,None,129.82691727700876,None,129.82691727700876,None,129.82691727700876,None,129.82691727700876,None,129.82691727700876,None,129.82691727700876,None,129.82691727700876,None,0.1,-0.06375,1,0,0,response3disk,0.01561772171407938,None,129.82691727700876,None,129.82691727700876,None,None,None,None,None,None,None,None,None,None,None,None,None,None,None,None,None,0.1,-0.06375,1,0,0,response3disk,None,None,None,None,None,None,130.0928341540275,None,130.0928341540275,None,130.0928341540275,None,130.0928341540275,None,130.0928341540275,None,130.0928341540275,None,130.0928341540275,None,130.0928341540275,None,0.015,-0.0125,1,0,0,rectangle,0.014706856396514922,None,130.0928341540275,None,130.0928341540275,None,130.0928341540275,None,,001,2020_Oct_12_1255,Simcolourproject_2stim_asymm_v1,2020.1.2,60.22211722968038,
5,5,FF,0,19,19,19,130.4455576770124,130.7101136270212,130.4455576770124,None,130.96059477701783,None,130.96059477701783,None,130.96059477701783,None,130.96059477701783,None,130.96059477701783,None,130.96059477701783,None,130.96059477701783,None,130.96059477701783,None,0.04875,-0.1125,1,0,0,response3disk,0.015639137709513307,None,130.96059477701783,None,130.96059477701783,None,None,None,None,None,None,None,None,None,None,None,None,None,None,None,None,None,0.04875,-0.1125,1,0,0,response3disk,None,None,None,None,None,None,131.21197836502688,None,131.21197836502688,None,131.21197836502688,None,131.21197836502688,None,131.21197836502688,None,131.21197836502688,None,131.21197836502688,None,131.21197836502688,None,-0.0075,0.00375,1,0,0,rectangle,0.012390727351885289,None,131.21197836502688,None,131.21197836502688,None,131.21197836502688,None,,001,2020_Oct_12_1255,Simcolourproject_2stim_asymm_v1,2020.1.2,60.22211722968038,
8,1,FF,0,20,20,20,131.57875641901046,131.84364683600143,131.57875641901046,None,132.09475849603768,None,132.09475849603768,None,132.09475849603768,None,132.09475849603768,None,132.09475849603768,None,132.09475849603768,None,132.09475849603768,None,132.09475849603768,None,-0.035,-0.10125,1,0,0,response5disk,0.015640378755051643,None,132.09475849603768,None,132.09475849603768,None,None,None,None,None,None,None,None,None,None,None,None,None,None,None,None,None,-0.035,-0.10125,1,0,0,response5disk,None,None,None,None,None,None,132.41049052600283,None,132.41049052600283,None,132.41049052600283,None,132.41049052600283,None,132.41049052600283,None,132.41049052600283,None,132.41049052600283,None,132.41049052600283,None,-0.00875,0.00125,1,0,0,rectangle,0.014428490365389735,None,132.41049052600283,None,132.41049052600283,None,132.41049052600283,None,,001,2020_Oct_12_1255,Simcolourproject_2stim_asymm_v1,2020.1.2,60.22211722968038,
6,3,FF,0,21,21,21,132.76310734299477,133.0283037479967,132.76310734299477,None,133.2783260209835,None,133.2783260209835,None,133.2783260209835,None,133.2783260209835,None,133.2783260209835,None,133.2783260209835,None,133.2783260209835,None,133.2783260209835,None,-0.0775,-0.0475,1,0,0,response5disk,0.01561795175075531,None,133.2783260209835,None,133.2783260209835,None,None,None,None,None,None,None,None,None,None,None,None,None,None,None,None,None,-0.0775,-0.0475,1,0,0,response5disk,None,None,None,None,None,None,133.61159720801516,None,133.61159720801516,None,133.61159720801516,None,133.61159720801516,None,133.61159720801516,None,133.61159720801516,None,133.61159720801516,None,133.61159720801516,None,-0.0025,0.00125,1,0,0,rectangle,0.014801886398345232,None,133.61159720801516,None,133.61159720801516,None,133.61159720801516,None,,001,2020_Oct_12_1255,Simcolourproject_2stim_asymm_v1,2020.1.2,60.22211722968038,
8,2,FF,0,22,22,22,133.96289653301938,134.22903383901576,133.96289653301938,None,134.47899828501977,None,134.47899828501977,None,134.47899828501977,None,134.47899828501977,None,134.47899828501977,None,134.47899828501977,None,134.47899828501977,None,134.47899828501977,None,0.05,-0.1175,1,0,0,response3disk,0.01561739866156131,None,134.47899828501977,None,134.47899828501977,None,None,None,None,None,None,None,None,None,None,None,None,None,None,None,None,None,0.05,-0.1175,1,0,0,response3disk,None,None,None,None,None,None,134.7448811699869,None,134.7448811699869,None,134.7448811699869,None,134.7448811699869,None,134.7448811699869,None,134.7448811699869,None,134.7448811699869,None,134.7448811699869,None,0.0175,0.00625,1,0,0,rectangle,0.01513115840498358,None,134.7448811699869,None,134.7448811699869,None,134.7448811699869,None,,001,2020_Oct_12_1255,Simcolourproject_2stim_asymm_v1,2020.1.2,60.22211722968038,
8,7,PF,0,23,23,23,135.13097765203565,135.39567779999925,135.13097765203565,None,135.64598113502143,None,135.64598113502143,None,135.64598113502143,None,135.64598113502143,None,135.64598113502143,None,135.64598113502143,None,135.64598113502143,None,135.64598113502143,None,0.1,-0.06375,1,0,0,response3disk,0.015628666675183922,None,135.64598113502143,None,135.64598113502143,None,None,None,None,None,None,None,None,None,None,None,None,None,None,None,None,None,0.1,-0.06375,1,0,0,response3disk,None,None,None,None,None,None,135.89541187498253,None,135.89541187498253,None,135.89541187498253,None,135.89541187498253,None,135.89541187498253,None,135.89541187498253,None,135.89541187498253,None,135.89541187498253,None,0.01125,0.0025,1,0,0,rectangle,0.014493153430521488,None,135.89541187498253,None,135.89541187498253,None,135.89541187498253,None,,001,2020_Oct_12_1255,Simcolourproject_2stim_asymm_v1,2020.1.2,60.22211722968038,
1,2,PF,0,24,24,24,136.29831153003033,136.56301567400806,136.29831153003033,None,136.81347763899248,None,136.81347763899248,None,136.81347763899248,None,136.81347763899248,None,136.81347763899248,None,136.81347763899248,None,136.81347763899248,None,136.81347763899248,None,-0.04125,0.07625,1,0,0,response7disk,0.015837064711377025,None,136.81347763899248,None,136.81347763899248,None,None,None,None,None,None,None,None,None,None,None,None,None,None,None,None,None,-0.04125,0.07625,1,0,0,response7disk,None,None,None,None,None,None,137.12951134698233,None,137.12951134698233,None,137.12951134698233,None,137.12951134698233,None,137.12951134698233,None,137.12951134698233,None,137.12951134698233,None,137.12951134698233,None,-0.00625,0.0,1,0,0,rectangle,0.014241151453461498,None,137.12951134698233,None,137.12951134698233,None,137.12951134698233,None,,001,2020_Oct_12_1255,Simcolourproject_2stim_asymm_v1,2020.1.2,60.22211722968038,
5,3,FF,0,25,25,25,137.4813507689978,137.7468840359943,137.4813507689978,None,137.99710720899748,None,137.99710720899748,None,137.99710720899748,None,137.99710720899748,None,137.99710720899748,None,137.99710720899748,None,137.99710720899748,None,137.99710720899748,None,0.07,0.10875,1,0,0,response1disk,0.015563668741378933,None,137.99710720899748,None,137.99710720899748,None,None,None,None,None,None,None,None,None,None,None,None,None,None,None,None,None,0.07,0.10875,1,0,0,response1disk,None,None,None,None,None,None,138.34684674901655,None,138.34684674901655,None,138.34684674901655,None,138.34684674901655,None,138.34684674901655,None,138.34684674901655,None,138.34684674901655,None,138.34684674901655,None,0.01125,0.0175,1,0,0,rectangle,0.015249848365783691,None,138.34684674901655,None,138.34684674901655,None,138.34684674901655,None,,001,2020_Oct_12_1255,Simcolourproject_2stim_asymm_v1,2020.1.2,60.22211722968038,
6,3,PF,0,26,26,26,138.7153554810211,138.98068168602185,138.7153554810211,None,139.23139706102666,None,139.23139706102666,None,139.23139706102666,None,139.23139706102666,None,139.23139706102666,None,139.23139706102666,None,139.23139706102666,None,139.23139706102666,None,0.10375,0.03875,1,0,0,response1disk,0.015616349701303989,None,139.23139706102666,None,139.23139706102666,None,None,None,None,None,None,None,None,None,None,None,None,None,None,None,None,None,0.10375,0.03875,1,0,0,response1disk,None,None,None,None,None,None,139.58064356300747,None,139.58064356300747,None,139.58064356300747,None,139.58064356300747,None,139.58064356300747,None,139.58064356300747,None,139.58064356300747,None,139.58064356300747,None,-0.0225,0.01125,1,0,0,rectangle,0.0012740697129629552,None,139.58064356300747,None,139.58064356300747,None,139.58064356300747,None,,001,2020_Oct_12_1255,Simcolourproject_2stim_asymm_v1,2020.1.2,60.22211722968038,
1,8,FF,0,27,27,27,139.9667174179922,140.23192757501965,139.9667174179922,None,140.48168491502292,None,140.48168491502292,None,140.48168491502292,None,140.48168491502292,None,140.48168491502292,None,140.48168491502292,None,140.48168491502292,None,140.48168491502292,None,0.04375,-0.11875,1,0,0,response3disk,0.015265429741702974,None,140.48168491502292,None,140.48168491502292,None,None,None,None,None,None,None,None,None,None,None,None,None,None,None,None,None,0.04375,-0.11875,1,0,0,response3disk,None,None,None,None,None,None,140.7812295500189,None,140.7812295500189,None,140.7812295500189,None,140.7812295500189,None,140.7812295500189,None,140.7812295500189,None,140.7812295500189,None,140.7812295500189,None,-0.00625,-0.01125,1,0,0,rectangle,0.014555936388205737,None,140.7812295500189,None,140.7812295500189,None,140.7812295500189,None,,001,2020_Oct_12_1255,Simcolourproject_2stim_asymm_v1,2020.1.2,60.22211722968038,
1,5,PF,0,28,28,28,141.30032734503038,141.56499613000778,141.30032734503038,None,141.8160621119896,None,141.8160621119896,None,141.8160621119896,None,141.8160621119896,None,141.8160621119896,None,141.8160621119896,None,141.8160621119896,None,141.8160621119896,None,-0.04875,-0.13375,1,0,0,response5disk,0.015630286652594805,None,141.8160621119896,None,141.8160621119896,None,None,None,None,None,None,None,None,None,None,None,None,None,None,None,None,None,-0.04875,-0.13375,1,0,0,response5disk,None,None,None,None,None,None,142.08230573503533,None,142.08230573503533,None,142.08230573503533,None,142.08230573503533,None,142.08230573503533,None,142.08230573503533,None,142.08230573503533,None,142.08230573503533,None,-0.01625,-0.03875,1,0,0,rectangle,0.014487723412457854,None,142.08230573503533,None,142.08230573503533,None,142.08230573503533,None,,001,2020_Oct_12_1255,Simcolourproject_2stim_asymm_v1,2020.1.2,60.22211722968038,
7,6,PF,0,29,29,29,142.46680211502826,142.7155595649965,142.46680211502826,None,142.98333240201464,None,142.98333240201464,None,142.98333240201464,None,142.98333240201464,None,142.98333240201464,None,142.98333240201464,None,142.98333240201464,None,142.98333240201464,None,-0.08625,-0.08,1,0,0,response5disk,0.01563247968442738,None,142.98333240201464,None,142.98333240201464,None,None,None,None,None,None,None,None,None,None,None,None,None,None,None,None,None,-0.08625,-0.08,1,0,0,response5disk,None,None,None,None,None,None,143.2661931340117,None,143.2661931340117,None,143.2661931340117,None,143.2661931340117,None,143.2661931340117,None,143.2661931340117,None,143.2661931340117,None,143.2661931340117,None,0.01625,-0.0075,1,0,0,rectangle,0.016467079403810203,None,143.2661931340117,None,143.2661931340117,None,143.2661931340117,None,,001,2020_Oct_12_1255,Simcolourproject_2stim_asymm_v1,2020.1.2,60.22211722968038,
3,4,PF,0,30,30,30,143.6345672220341,143.8993786490173,143.6345672220341,None,144.1493566490244,None,144.1493566490244,None,144.1493566490244,None,144.1493566490244,None,144.1493566490244,None,144.1493566490244,None,144.1493566490244,None,144.1493566490244,None,0.05125,-0.10875,1,0,0,response3disk,0.015621353755705059,None,144.1493566490244,None,144.1493566490244,None,None,None,None,None,None,None,None,None,None,None,None,None,None,None,None,None,0.05125,-0.10875,1,0,0,response3disk,None,None,None,None,None,None,144.4501852359972,None,144.4501852359972,None,144.4501852359972,None,144.4501852359972,None,144.4501852359972,None,144.4501852359972,None,144.4501852359972,None,144.4501852359972,None,0.00375,0.015,1,0,0,rectangle,0.014111955417320132,None,144.4501852359972,None,144.4501852359972,None,144.4501852359972,None,,001,2020_Oct_12_1255,Simcolourproject_2stim_asymm_v1,2020.1.2,60.22211722968038,
7,6,FF,0,31,31,31,144.76858923601685,145.03274810902076,144.76858923601685,None,145.28385996900033,None,145.28385996900033,None,145.28385996900033,None,145.28385996900033,None,145.28385996900033,None,145.28385996900033,None,145.28385996900033,None,145.28385996900033,None,0.1075,-0.06375,1,0,0,response3disk,0.015637661679647863,None,145.28385996900033,None,145.28385996900033,None,None,None,None,None,None,None,None,None,None,None,None,None,None,None,None,None,0.1075,-0.06375,1,0,0,response3disk,None,None,None,None,None,None,145.53342846600572,None,145.53342846600572,None,145.53342846600572,None,145.53342846600572,None,145.53342846600572,None,145.53342846600572,None,145.53342846600572,None,145.53342846600572,None,0.015,0.0075,1,0,0,rectangle,0.014182105369400233,None,145.53342846600572,None,145.53342846600572,None,145.53342846600572,None,,001,2020_Oct_12_1255,Simcolourproject_2stim_asymm_v1,2020.1.2,60.22211722968038,
7,2,PF,0,32,32,32,145.8855623860145,146.1509662530152,145.8855623860145,None,146.38508618599735,None,146.38508618599735,None,146.38508618599735,None,146.38508618599735,None,146.38508618599735,None,146.38508618599735,None,146.38508618599735,None,146.38508618599735,None,0.05125,-0.10625,1,0,0,response3disk,0.01565587770892307,None,146.38508618599735,None,146.38508618599735,None,None,None,None,None,None,None,None,None,None,None,None,None,None,None,None,None,0.05125,-0.10625,1,0,0,response3disk,None,None,None,None,None,None,146.51714275800623,None,146.51714275800623,None,146.51714275800623,None,146.51714275800623,None,146.51714275800623,None,146.51714275800623,None,146.51714275800623,None,146.51714275800623,None,0.00625,0.015,1,0,0,rectangle,0.014111929398495704,None,146.51714275800623,None,146.51714275800623,None,146.51714275800623,None,,001,2020_Oct_12_1255,Simcolourproject_2stim_asymm_v1,2020.1.2,60.22211722968038,
6,4,PF,0,33,33,33,146.91947838803753,147.18419827503385,146.91947838803753,None,147.43492826999864,None,147.43492826999864,None,147.43492826999864,None,147.43492826999864,None,147.43492826999864,None,147.43492826999864,None,147.43492826999864,None,147.43492826999864,None,-0.0425,-0.1025,1,0,0,response5disk,0.01561704877531156,None,147.43492826999864,None,147.43492826999864,None,None,None,None,None,None,None,None,None,None,None,None,None,None,None,None,None,-0.0425,-0.1025,1,0,0,response5disk,None,None,None,None,None,None,147.71889603498857,None,147.71889603498857,None,147.71889603498857,None,147.71889603498857,None,147.71889603498857,None,147.71889603498857,None,147.71889603498857,None,147.71889603498857,None,-0.01125,0.0,1,0,0,rectangle,0.013832209398970008,None,147.71889603498857,None,147.71889603498857,None,147.71889603498857,None,,001,2020_Oct_12_1255,Simcolourproject_2stim_asymm_v1,2020.1.2,60.22211722968038,
7,7,FF,0,34,34,34,148.12157833803212,148.38457181799458,148.12157833803212,None,148.63517412502551,None,148.63517412502551,None,148.63517412502551,None,148.63517412502551,None,148.63517412502551,None,148.63517412502551,None,148.63517412502551,None,148.63517412502551,None,0.05375,-0.105,1,0,0,response3disk,0.015553974721115083,None,148.63517412502551,None,148.63517412502551,None,None,None,None,None,None,None,None,None,None,None,None,None,None,None,None,None,0.05375,-0.105,1,0,0,response3disk,None,None,None,None,None,None,148.88485284498893,None,148.88485284498893,None,148.88485284498893,None,148.88485284498893,None,148.88485284498893,None,148.88485284498893,None,148.88485284498893,None,148.88485284498893,None,-0.0025,0.0325,1,0,0,rectangle,0.014697993348818272,None,148.88485284498893,None,148.88485284498893,None,148.88485284498893,None,,001,2020_Oct_12_1255,Simcolourproject_2stim_asymm_v1,2020.1.2,60.22211722968038,
4,8,FF,0,35,35,35,149.37026125000557,149.63538906502072,149.37026125000557,None,149.8693112040055,None,149.8693112040055,None,149.8693112040055,None,149.8693112040055,None,149.8693112040055,None,149.8693112040055,None,149.8693112040055,None,149.8693112040055,None,0.10125,-0.03125,1,0,0,response3disk,0.01549057470401749,None,149.8693112040055,None,149.8693112040055,None,None,None,None,None,None,None,None,None,None,None,None,None,None,None,None,None,0.10125,-0.03125,1,0,0,response3disk,None,None,None,None,None,None,150.33638892800082,None,150.33638892800082,None,150.33638892800082,None,150.33638892800082,None,150.33638892800082,None,150.33638892800082,None,150.33638892800082,None,150.33638892800082,None,0.01125,0.0025,1,0,0,rectangle,0.014235982322134078,None,150.33638892800082,None,150.33638892800082,None,150.33638892800082,None,,001,2020_Oct_12_1255,Simcolourproject_2stim_asymm_v1,2020.1.2,60.22211722968038,
3,2,PF,0,36,36,36,150.72162559401477,150.98629772599088,150.72162559401477,None,151.23666596098337,None,151.23666596098337,None,151.23666596098337,None,151.23666596098337,None,151.23666596098337,None,151.23666596098337,None,151.23666596098337,None,151.23666596098337,None,0.095,0.06,1,0,0,response1disk,0.015632404712960124,None,151.23666596098337,None,151.23666596098337,None,None,None,None,None,None,None,None,None,None,None,None,None,None,None,None,None,0.095,0.06,1,0,0,response1disk,None,None,None,None,None,None,151.56974503601668,None,151.56974503601668,None,151.56974503601668,None,151.56974503601668,None,151.56974503601668,None,151.56974503601668,None,151.56974503601668,None,151.56974503601668,None,0.025,0.0075,1,0,0,rectangle,0.001710103766527027,None,151.56974503601668,None,151.56974503601668,None,151.56974503601668,None,,001,2020_Oct_12_1255,Simcolourproject_2stim_asymm_v1,2020.1.2,60.22211722968038,
8,6,FF,0,37,37,37,151.93887309898855,152.20345523400465,151.93887309898855,None,152.45342642901232,None,152.45342642901232,None,152.45342642901232,None,152.45342642901232,None,152.45342642901232,None,152.45342642901232,None,152.45342642901232,None,152.45342642901232,None,0.09625,-0.13,1,0,0,response3disk,0.015638742712326348,None,152.45342642901232,None,152.45342642901232,None,None,None,None,None,None,None,None,None,None,None,None,None,None,None,None,None,0.09625,-0.13,1,0,0,response3disk,None,None,None,None,None,None,153.50399781099986,None,153.50399781099986,None,153.50399781099986,None,153.50399781099986,None,153.50399781099986,None,153.50399781099986,None,153.50399781099986,None,153.50399781099986,None,0.01125,-0.03125,1,0,0,rectangle,0.01446666638366878,None,153.50399781099986,None,153.50399781099986,None,153.50399781099986,None,,001,2020_Oct_12_1255,Simcolourproject_2stim_asymm_v1,2020.1.2,60.22211722968038,
4,7,PF,0,38,38,38,153.95666540798265,154.22166069300147,153.95666540798265,None,154.47121850802796,None,154.47121850802796,None,154.47121850802796,None,154.47121850802796,None,154.47121850802796,None,154.47121850802796,None,154.47121850802796,None,154.47121850802796,None,-0.0425,-0.13125,1,0,0,response5disk,0.015897109755314887,None,154.47121850802796,None,154.47121850802796,None,None,None,None,None,None,None,None,None,None,None,None,None,None,None,None,None,-0.0425,-0.13125,1,0,0,response5disk,None,None,None,None,None,None,155.53891043702606,None,155.53891043702606,None,155.53891043702606,None,155.53891043702606,None,155.53891043702606,None,155.53891043702606,None,155.53891043702606,None,155.53891043702606,None,0.02125,-0.01625,1,0,0,rectangle,0.014344232447911054,None,155.53891043702606,None,155.53891043702606,None,155.53891043702606,None,,001,2020_Oct_12_1255,Simcolourproject_2stim_asymm_v1,2020.1.2,60.22211722968038,
2,9,PF,0,39,39,39,156.05584787600674,156.3056583669968,156.05584787600674,None,156.55611514899647,None,156.55611514899647,None,156.55611514899647,None,156.55611514899647,None,156.55611514899647,None,156.55611514899647,None,156.55611514899647,None,156.55611514899647,None,-0.075,0.035,1,0,0,response7disk,0.015614216739777476,None,156.55611514899647,None,156.55611514899647,None,None,None,None,None,None,None,None,None,None,None,None,None,None,None,None,None,-0.075,0.035,1,0,0,response7disk,None,None,None,None,None,None,157.13983745500445,None,157.13983745500445,None,157.13983745500445,None,157.13983745500445,None,157.13983745500445,None,157.13983745500445,None,157.13983745500445,None,157.13983745500445,None,0.00625,-0.01625,1,0,0,rectangle,0.003950469312258065,None,157.13983745500445,None,157.13983745500445,None,157.13983745500445,None,,001,2020_Oct_12_1255,Simcolourproject_2stim_asymm_v1,2020.1.2,60.22211722968038,
2,6,FF,0,40,40,40,157.5077488470124,157.77292513201246,157.5077488470124,None,158.02340099599678,None,158.02340099599678,None,158.02340099599678,None,158.02340099599678,None,158.02340099599678,None,158.02340099599678,None,158.02340099599678,None,158.02340099599678,None,-0.025,0.1025,1,0,0,response7disk,0.015611593727953732,None,158.02340099599678,None,158.02340099599678,None,None,None,None,None,None,None,None,None,None,None,None,None,None,None,None,None,-0.025,0.1025,1,0,0,response7disk,None,None,None,None,None,None,158.25715666398173,None,158.25715666398173,None,158.25715666398173,None,158.25715666398173,None,158.25715666398173,None,158.25715666398173,None,158.25715666398173,None,158.25715666398173,None,0.005,-0.00125,1,0,0,rectangle,0.013168951380066574,None,158.25715666398173,None,158.25715666398173,None,158.25715666398173,None,,001,2020_Oct_12_1255,Simcolourproject_2stim_asymm_v1,2020.1.2,60.22211722968038,
3,7,PF,0,41,41,41,158.65882309898734,158.92332222900586,158.65882309898734,None,159.174083541031,None,159.174083541031,None,159.174083541031,None,159.174083541031,None,159.174083541031,None,159.174083541031,None,159.174083541031,None,159.174083541031,None,0.06125,-0.15125,1,0,0,response3disk,0.01562885573366657,None,159.174083541031,None,159.174083541031,None,None,None,None,None,None,None,None,None,None,None,None,None,None,None,None,None,0.06125,-0.15125,1,0,0,response3disk,None,None,None,None,None,None,159.50702543801162,None,159.50702543801162,None,159.50702543801162,None,159.50702543801162,None,159.50702543801162,None,159.50702543801162,None,159.50702543801162,None,159.50702543801162,None,0.0025,-0.00875,1,0,0,rectangle,0.01497230539098382,None,159.50702543801162,None,159.50702543801162,None,159.50702543801162,None,,001,2020_Oct_12_1255,Simcolourproject_2stim_asymm_v1,2020.1.2,60.22211722968038,
8,9,PF,0,42,42,42,161.30926400900353,161.55827976798173,161.30926400900353,None,161.80913582700305,None,161.80913582700305,None,161.80913582700305,None,161.80913582700305,None,161.80913582700305,None,161.80913582700305,None,161.80913582700305,None,161.80913582700305,None,0.105,0.02625,1,0,0,response1disk,0.015598826692439616,None,161.80913582700305,None,161.80913582700305,None,None,None,None,None,None,None,None,None,None,None,None,None,None,None,None,None,0.105,0.02625,1,0,0,response1disk,None,None,None,None,None,None,162.09245693701087,None,162.09245693701087,None,162.09245693701087,None,162.09245693701087,None,162.09245693701087,None,162.09245693701087,None,162.09245693701087,None,162.09245693701087,None,0.0175,0.00125,1,0,0,rectangle,0.013553068391047418,None,162.09245693701087,None,162.09245693701087,None,162.09245693701087,None,,001,2020_Oct_12_1255,Simcolourproject_2stim_asymm_v1,2020.1.2,60.22211722968038,
7,4,PF,0,43,43,43,162.459760955011,162.72504616703372,162.459760955011,None,162.95951356203295,None,162.95951356203295,None,162.95951356203295,None,162.95951356203295,None,162.95951356203295,None,162.95951356203295,None,162.95951356203295,None,162.95951356203295,None,0.115,-0.04875,1,0,0,response3disk,0.015478806686587632,None,162.95951356203295,None,162.95951356203295,None,None,None,None,None,None,None,None,None,None,None,None,None,None,None,None,None,0.115,-0.04875,1,0,0,response3disk,None,None,None,None,None,None,163.22516213200288,None,163.22516213200288,None,163.22516213200288,None,163.22516213200288,None,163.22516213200288,None,163.22516213200288,None,163.22516213200288,None,163.22516213200288,None,-0.03,0.01875,1,0,0,rectangle,0.014406372443772852,None,163.22516213200288,None,163.22516213200288,None,163.22516213200288,None,,001,2020_Oct_12_1255,Simcolourproject_2stim_asymm_v1,2020.1.2,60.22211722968038,
3,8,FF,0,44,44,44,163.56057254702318,163.80851814697962,163.56057254702318,None,164.07719137502136,None,164.07719137502136,None,164.07719137502136,None,164.07719137502136,None,164.07719137502136,None,164.07719137502136,None,164.07719137502136,None,164.07719137502136,None,0.03375,-0.11875,1,0,0,response3disk,0.015774748753756285,None,164.07719137502136,None,164.07719137502136,None,None,None,None,None,None,None,None,None,None,None,None,None,None,None,None,None,0.03375,-0.11875,1,0,0,response3disk,None,None,None,None,None,None,164.40948629402556,None,164.40948629402556,None,164.40948629402556,None,164.40948629402556,None,164.40948629402556,None,164.40948629402556,None,164.40948629402556,None,164.40948629402556,None,-0.00375,-0.01,1,0,0,rectangle,0.015025550324935466,None,164.40948629402556,None,164.40948629402556,None,164.40948629402556,None,,001,2020_Oct_12_1255,Simcolourproject_2stim_asymm_v1,2020.1.2,60.22211722968038,
6,9,PF,0,45,45,45,164.74491338600637,165.00964050600305,164.74491338600637,None,165.25998284103116,None,165.25998284103116,None,165.25998284103116,None,165.25998284103116,None,165.25998284103116,None,165.25998284103116,None,165.25998284103116,None,165.25998284103116,None,-0.0725,-0.12,1,0,0,response5disk,0.015635998686775565,None,165.25998284103116,None,165.25998284103116,None,None,None,None,None,None,None,None,None,None,None,None,None,None,None,None,None,-0.0725,-0.12,1,0,0,response5disk,None,None,None,None,None,None,165.50942293403205,None,165.50942293403205,None,165.50942293403205,None,165.50942293403205,None,165.50942293403205,None,165.50942293403205,None,165.50942293403205,None,165.50942293403205,None,-0.00625,-0.0175,1,0,0,rectangle,0.014645542309153825,None,165.50942293403205,None,165.50942293403205,None,165.50942293403205,None,,001,2020_Oct_12_1255,Simcolourproject_2stim_asymm_v1,2020.1.2,60.22211722968038,
6,1,PF,0,46,46,46,165.86264117603423,166.1269421330071,165.86264117603423,None,166.37780406500679,None,166.37780406500679,None,166.37780406500679,None,166.37780406500679,None,166.37780406500679,None,166.37780406500679,None,166.37780406500679,None,166.37780406500679,None,-0.0325,0.0725,1,0,0,response7disk,0.015264751680660993,None,166.37780406500679,None,166.37780406500679,None,None,None,None,None,None,None,None,None,None,None,None,None,None,None,None,None,-0.0325,0.0725,1,0,0,response7disk,None,None,None,None,None,None,166.71027454099385,None,166.71027454099385,None,166.71027454099385,None,166.71027454099385,None,166.71027454099385,None,166.71027454099385,None,166.71027454099385,None,166.71027454099385,None,0.00625,-0.03125,1,0,0,rectangle,0.0014361086650751531,None,166.71027454099385,None,166.71027454099385,None,166.71027454099385,None,,001,2020_Oct_12_1255,Simcolourproject_2stim_asymm_v1,2020.1.2,60.22211722968038,
3,6,PF,0,47,47,47,167.06234233803116,167.3269862330053,167.06234233803116,None,167.57715123798698,None,167.57715123798698,None,167.57715123798698,None,167.57715123798698,None,167.57715123798698,None,167.57715123798698,None,167.57715123798698,None,167.57715123798698,None,0.10875,0.0275,1,0,0,response1disk,0.015589526679832488,None,167.57715123798698,None,167.57715123798698,None,None,None,None,None,None,None,None,None,None,None,None,None,None,None,None,None,0.10875,0.0275,1,0,0,response1disk,None,None,None,None,None,None,167.94447095302166,None,167.94447095302166,None,167.94447095302166,None,167.94447095302166,None,167.94447095302166,None,167.94447095302166,None,167.94447095302166,None,167.94447095302166,None,0.00125,-0.02375,1,0,0,rectangle,0.01506882841931656,None,167.94447095302166,None,167.94447095302166,None,167.94447095302166,None,,001,2020_Oct_12_1255,Simcolourproject_2stim_asymm_v1,2020.1.2,60.22211722968038,
8,8,FF,0,48,48,48,168.3633849840262,168.628368959995,168.3633849840262,None,168.8781889170059,None,168.8781889170059,None,168.8781889170059,None,168.8781889170059,None,168.8781889170059,None,168.8781889170059,None,168.8781889170059,None,168.8781889170059,None,0.04375,-0.13,1,0,0,response3disk,0.015609776717610657,None,168.8781889170059,None,168.8781889170059,None,None,None,None,None,None,None,None,None,None,None,None,None,None,None,None,None,0.04375,-0.13,1,0,0,response3disk,None,None,None,None,None,None,169.06183701200644,None,169.06183701200644,None,169.06183701200644,None,169.06183701200644,None,169.06183701200644,None,169.06183701200644,None,169.06183701200644,None,169.06183701200644,None,-0.00875,-0.01125,1,0,0,rectangle,0.014613739331252873,None,169.06183701200644,None,169.06183701200644,None,169.06183701200644,None,,001,2020_Oct_12_1255,Simcolourproject_2stim_asymm_v1,2020.1.2,60.22211722968038,
4,5,PF,0,49,49,49,169.4135159800062,169.67900485702557,169.4135159800062,None,169.9291716470034,None,169.9291716470034,None,169.9291716470034,None,169.9291716470034,None,169.9291716470034,None,169.9291716470034,None,169.9291716470034,None,169.9291716470034,None,0.08875,-0.0825,1,0,0,response3disk,0.015249638759996742,None,169.9291716470034,None,169.9291716470034,None,None,None,None,None,None,None,None,None,None,None,None,None,None,None,None,None,0.08875,-0.0825,1,0,0,response3disk,None,None,None,None,None,None,170.21193756902358,None,170.21193756902358,None,170.21193756902358,None,170.21193756902358,None,170.21193756902358,None,170.21193756902358,None,170.21193756902358,None,170.21193756902358,None,0.025,-0.0325,1,0,0,rectangle,0.014249967411160469,None,170.21193756902358,None,170.21193756902358,None,170.21193756902358,None,,001,2020_Oct_12_1255,Simcolourproject_2stim_asymm_v1,2020.1.2,60.22211722968038,
6,7,PF,0,50,50,50,170.64757350698346,170.91257721401053,170.64757350698346,None,171.16280649398686,None,171.16280649398686,None,171.16280649398686,None,171.16280649398686,None,171.16280649398686,None,171.16280649398686,None,171.16280649398686,None,171.16280649398686,None,0.04125,-0.1325,1,0,0,response3disk,0.015533144702203572,None,171.16280649398686,None,171.16280649398686,None,None,None,None,None,None,None,None,None,None,None,None,None,None,None,None,None,0.04125,-0.1325,1,0,0,response3disk,None,None,None,None,None,None,171.34658241900615,None,171.34658241900615,None,171.34658241900615,None,171.34658241900615,None,171.34658241900615,None,171.34658241900615,None,171.34658241900615,None,171.34658241900615,None,-0.01875,-0.0075,1,0,0,rectangle,0.013510631397366524,None,171.34658241900615,None,171.34658241900615,None,171.34658241900615,None,,001,2020_Oct_12_1255,Simcolourproject_2stim_asymm_v1,2020.1.2,60.22211722968038,
,,,,,,,171.7503980959882,172.01316129398765,171.7503980959882,None,,,,,,,,,,,,,,,,,,,,,,,,,,,,,,,,,,,,,,,,,,,,,,,,,,,,,,,,,,,,,,,,,,,,,,,,,,,,,,,,,,,,,,,,,,,,,
