Colour_1,Colour_2,Ecc,trials.thisRepN,trials.thisTrialN,trials.thisN,trials.thisIndex,Circle_1.started,Circle_1.stopped,centre_cross4.started,centre_cross4.stopped,response1disk.started,response1disk.stopped,response2disk.started,response2disk.stopped,response3disk.started,response3disk.stopped,response4disk.started,response4disk.stopped,response5disk.started,response5disk.stopped,response6disk.started,response6disk.stopped,response7disk.started,response7disk.stopped,response8disk.started,response8disk.stopped,mouse.x,mouse.y,mouse.leftButton,mouse.midButton,mouse.rightButton,mouse.clicked_name,mouse.started,mouse.stopped,Circle_2.started,Circle_2.stopped,text_23.started,text_23.stopped,response1disk_3.started,response1disk_3.stopped,response2disk_3.started,response2disk_3.stopped,response3disk_3.started,response3disk_3.stopped,response4disk_3.started,response4disk_3.stopped,response5disk_3.started,response5disk_3.stopped,response6disk_3.started,response6disk_3.stopped,response7disk_3.started,response7disk_3.stopped,response8disk_3.started,response8disk_3.stopped,mouse_3.x,mouse_3.y,mouse_3.leftButton,mouse_3.midButton,mouse_3.rightButton,mouse_3.clicked_name,mouse_3.started,mouse_3.stopped,text_26.started,text_26.stopped,rectangle_2.started,rectangle_2.stopped,response1disk_2.started,response1disk_2.stopped,response2disk_2.started,response2disk_2.stopped,response3disk_2.started,response3disk_2.stopped,response4disk_2.started,response4disk_2.stopped,response5disk_2.started,response5disk_2.stopped,response6disk_2.started,response6disk_2.stopped,response7disk_2.started,response7disk_2.stopped,response8disk_2.started,response8disk_2.stopped,mouse_2.x,mouse_2.y,mouse_2.leftButton,mouse_2.midButton,mouse_2.rightButton,mouse_2.clicked_name,mouse_2.started,mouse_2.stopped,rectangle.started,rectangle.stopped,text_25.started,text_25.stopped,text_24.started,text_24.stopped,participant,session,date,expName,psychopyVersion,frameRate,
6,6,PF,0,0,0,0,65.93056198395789,66.19584753696108,65.93056198395789,None,66.42919838399393,None,66.42919838399393,None,66.42919838399393,None,66.42919838399393,None,66.42919838399393,None,66.42919838399393,None,66.42919838399393,None,66.42919838399393,None,-0.0375,-0.11875,1,0,0,response5disk,0.01522690342972055,None,66.42919838399393,None,66.42919838399393,None,None,None,None,None,None,None,None,None,None,None,None,None,None,None,None,None,-0.0375,-0.11875,1,0,0,response5disk,None,None,None,None,None,None,68.2637884169817,None,68.2637884169817,None,68.2637884169817,None,68.2637884169817,None,68.2637884169817,None,68.2637884169817,None,68.2637884169817,None,68.2637884169817,None,-0.02,0.0075,1,0,0,rectangle,0.009841684193816036,None,68.2637884169817,None,68.2637884169817,None,68.2637884169817,None,,001,2020_Oct_12_1302,Simcolourproject_2stim_asymm_v1,2020.1.2,60.059724579031325,
1,3,PF,0,1,1,1,68.61368435999611,68.86372175696306,68.61368435999611,None,69.11437300796388,None,69.11437300796388,None,69.11437300796388,None,69.11437300796388,None,69.11437300796388,None,69.11437300796388,None,69.11437300796388,None,69.11437300796388,None,0.04875,-0.15125,1,0,0,response3disk,0.015611255366820842,None,69.11437300796388,None,69.11437300796388,None,None,None,None,None,None,None,None,None,None,None,None,None,None,None,None,None,0.04875,-0.15125,1,0,0,response3disk,None,None,None,None,None,None,69.44698881998193,None,69.44698881998193,None,69.44698881998193,None,69.44698881998193,None,69.44698881998193,None,69.44698881998193,None,69.44698881998193,None,69.44698881998193,None,-0.0175,-0.02,1,0,0,rectangle,0.009953337837941945,None,69.44698881998193,None,69.44698881998193,None,69.44698881998193,None,,001,2020_Oct_12_1302,Simcolourproject_2stim_asymm_v1,2020.1.2,60.059724579031325,
1,2,FF,0,2,2,2,69.79767083999468,70.04817134496989,69.79767083999468,None,70.29892505996395,None,70.29892505996395,None,70.29892505996395,None,70.29892505996395,None,70.29892505996395,None,70.29892505996395,None,70.29892505996395,None,70.29892505996395,None,0.10625,-0.07125,1,0,0,response3disk,0.01587925443891436,None,70.29892505996395,None,70.29892505996395,None,None,None,None,None,None,None,None,None,None,None,None,None,None,None,None,None,0.10625,-0.07125,1,0,0,response3disk,None,None,None,None,None,None,70.63400058000116,None,70.63400058000116,None,70.63400058000116,None,70.63400058000116,None,70.63400058000116,None,70.63400058000116,None,70.63400058000116,None,70.63400058000116,None,0.00875,0.0,1,0,0,rectangle,0.012590009835548699,None,70.63400058000116,None,70.63400058000116,None,70.63400058000116,None,,001,2020_Oct_12_1302,Simcolourproject_2stim_asymm_v1,2020.1.2,60.059724579031325,
3,8,PF,0,3,3,3,70.96499558800133,71.2146921280073,70.96499558800133,None,71.46477911900729,None,71.46477911900729,None,71.46477911900729,None,71.46477911900729,None,71.46477911900729,None,71.46477911900729,None,71.46477911900729,None,71.46477911900729,None,-0.05125,0.0775,1,0,0,response7disk,0.01574710733257234,None,71.46477911900729,None,71.46477911900729,None,None,None,None,None,None,None,None,None,None,None,None,None,None,None,None,None,-0.05125,0.0775,1,0,0,response7disk,None,None,None,None,None,None,71.88186495698756,None,71.88186495698756,None,71.88186495698756,None,71.88186495698756,None,71.88186495698756,None,71.88186495698756,None,71.88186495698756,None,71.88186495698756,None,0.01875,-0.01625,1,0,0,rectangle,0.008917024766560644,None,71.88186495698756,None,71.88186495698756,None,71.88186495698756,None,,001,2020_Oct_12_1302,Simcolourproject_2stim_asymm_v1,2020.1.2,60.059724579031325,
3,3,PF,0,4,4,4,72.21763078396907,72.48194983997382,72.21763078396907,None,72.73285994498292,None,72.73285994498292,None,72.73285994498292,None,72.73285994498292,None,72.73285994498292,None,72.73285994498292,None,72.73285994498292,None,72.73285994498292,None,0.13125,0.04125,1,0,0,response1disk,0.015336737385950983,None,72.73285994498292,None,72.73285994498292,None,None,None,None,None,None,None,None,None,None,None,None,None,None,None,None,None,0.13125,0.04125,1,0,0,response1disk,None,None,None,None,None,None,73.13540515099885,None,73.13540515099885,None,73.13540515099885,None,73.13540515099885,None,73.13540515099885,None,73.13540515099885,None,73.13540515099885,None,73.13540515099885,None,-0.0025,-0.015,1,0,0,rectangle,0.01270390977151692,None,73.13540515099885,None,73.13540515099885,None,73.13540515099885,None,,001,2020_Oct_12_1302,Simcolourproject_2stim_asymm_v1,2020.1.2,60.059724579031325,
6,1,FF,0,5,5,5,73.51775367796654,73.78301348298555,73.51775367796654,None,74.0334536669543,None,74.0334536669543,None,74.0334536669543,None,74.0334536669543,None,74.0334536669543,None,74.0334536669543,None,74.0334536669543,None,74.0334536669543,None,0.11375,-0.08625,1,0,0,response3disk,0.015621661324985325,None,74.0334536669543,None,74.0334536669543,None,None,None,None,None,None,None,None,None,None,None,None,None,None,None,None,None,0.11375,-0.08625,1,0,0,response3disk,None,None,None,None,None,None,74.34970681997947,None,74.34970681997947,None,74.34970681997947,None,74.34970681997947,None,74.34970681997947,None,74.34970681997947,None,74.34970681997947,None,74.34970681997947,None,-0.01875,-0.01,1,0,0,rectangle,0.008411709743086249,None,74.34970681997947,None,74.34970681997947,None,74.34970681997947,None,,001,2020_Oct_12_1302,Simcolourproject_2stim_asymm_v1,2020.1.2,60.059724579031325,
9,8,FF,0,6,6,6,75.18561245000456,75.4506506229518,75.18561245000456,None,75.70018198399339,None,75.70018198399339,None,75.70018198399339,None,75.70018198399339,None,75.70018198399339,None,75.70018198399339,None,75.70018198399339,None,75.70018198399339,None,0.06375,-0.1075,1,0,0,response3disk,0.015441373398061842,None,75.70018198399339,None,75.70018198399339,None,None,None,None,None,None,None,None,None,None,None,None,None,None,None,None,None,0.06375,-0.1075,1,0,0,response3disk,None,None,None,None,None,None,76.16808304196456,None,76.16808304196456,None,76.16808304196456,None,76.16808304196456,None,76.16808304196456,None,76.16808304196456,None,76.16808304196456,None,76.16808304196456,None,0.01125,-0.0275,1,0,0,rectangle,0.013697574730031192,None,76.16808304196456,None,76.16808304196456,None,76.16808304196456,None,,001,2020_Oct_12_1302,Simcolourproject_2stim_asymm_v1,2020.1.2,60.059724579031325,
5,7,FF,0,7,7,7,76.4861168419593,76.75143385597039,76.4861168419593,None,77.00153418199625,None,77.00153418199625,None,77.00153418199625,None,77.00153418199625,None,77.00153418199625,None,77.00153418199625,None,77.00153418199625,None,77.00153418199625,None,-0.035,-0.125,1,0,0,response5disk,0.0157392643741332,None,77.00153418199625,None,77.00153418199625,None,None,None,None,None,None,None,None,None,None,None,None,None,None,None,None,None,-0.035,-0.125,1,0,0,response5disk,None,None,None,None,None,None,77.28765309898881,None,77.28765309898881,None,77.28765309898881,None,77.28765309898881,None,77.28765309898881,None,77.28765309898881,None,77.28765309898881,None,77.28765309898881,None,0.00125,-0.01375,1,0,0,rectangle,0.012039317807648331,None,77.28765309898881,None,77.28765309898881,None,77.28765309898881,None,,001,2020_Oct_12_1302,Simcolourproject_2stim_asymm_v1,2020.1.2,60.059724579031325,
5,4,FF,0,8,8,8,77.65382532600779,77.91826456296258,77.65382532600779,None,78.16970261995448,None,78.16970261995448,None,78.16970261995448,None,78.16970261995448,None,78.16970261995448,None,78.16970261995448,None,78.16970261995448,None,78.16970261995448,None,-0.09125,-0.06125,1,0,0,response5disk,0.015592428389936686,None,78.16970261995448,None,78.16970261995448,None,None,None,None,None,None,None,None,None,None,None,None,None,None,None,None,None,-0.09125,-0.06125,1,0,0,response5disk,None,None,None,None,None,None,78.46990641299635,None,78.46990641299635,None,78.46990641299635,None,78.46990641299635,None,78.46990641299635,None,78.46990641299635,None,78.46990641299635,None,78.46990641299635,None,0.015,0.005,1,0,0,rectangle,0.013069657841697335,None,78.46990641299635,None,78.46990641299635,None,78.46990641299635,None,,001,2020_Oct_12_1302,Simcolourproject_2stim_asymm_v1,2020.1.2,60.059724579031325,
2,1,PF,0,9,9,9,78.78778279799735,79.05137861298863,78.78778279799735,None,79.3034352149698,None,79.3034352149698,None,79.3034352149698,None,79.3034352149698,None,79.3034352149698,None,79.3034352149698,None,79.3034352149698,None,79.3034352149698,None,0.125,-0.06625,1,0,0,response3disk,0.015785388357471675,None,79.3034352149698,None,79.3034352149698,None,None,None,None,None,None,None,None,None,None,None,None,None,None,None,None,None,0.125,-0.06625,1,0,0,response3disk,None,None,None,None,None,None,79.60244131297804,None,79.60244131297804,None,79.60244131297804,None,79.60244131297804,None,79.60244131297804,None,79.60244131297804,None,79.60244131297804,None,79.60244131297804,None,-0.03125,-0.01,1,0,0,rectangle,0.009725272713694721,None,79.60244131297804,None,79.60244131297804,None,79.60244131297804,None,,001,2020_Oct_12_1302,Simcolourproject_2stim_asymm_v1,2020.1.2,60.059724579031325,
7,9,PF,0,10,10,10,79.87228310597129,80.13571925298311,79.87228310597129,None,80.38718586100731,None,80.38718586100731,None,80.38718586100731,None,80.38718586100731,None,80.38718586100731,None,80.38718586100731,None,80.38718586100731,None,80.38718586100731,None,-0.0725,0.09625,1,0,0,response7disk,0.015672182373236865,None,80.38718586100731,None,80.38718586100731,None,None,None,None,None,None,None,None,None,None,None,None,None,None,None,None,None,-0.0725,0.09625,1,0,0,response7disk,None,None,None,None,None,None,80.71986080397619,None,80.71986080397619,None,80.71986080397619,None,80.71986080397619,None,80.71986080397619,None,80.71986080397619,None,80.71986080397619,None,80.71986080397619,None,-0.005,-0.03,1,0,0,rectangle,0.010819835704751313,None,80.71986080397619,None,80.71986080397619,None,80.71986080397619,None,,001,2020_Oct_12_1302,Simcolourproject_2stim_asymm_v1,2020.1.2,60.059724579031325,
9,2,FF,0,11,11,11,81.0564931689878,81.32020713598467,81.0564931689878,None,81.57111443695612,None,81.57111443695612,None,81.57111443695612,None,81.57111443695612,None,81.57111443695612,None,81.57111443695612,None,81.57111443695612,None,81.57111443695612,None,0.1075,0.035,1,0,0,response1disk,0.015797947358805686,None,81.57111443695612,None,81.57111443695612,None,None,None,None,None,None,None,None,None,None,None,None,None,None,None,None,None,0.1075,0.035,1,0,0,response1disk,None,None,None,None,None,None,81.87320031499257,None,81.87320031499257,None,81.87320031499257,None,81.87320031499257,None,81.87320031499257,None,81.87320031499257,None,81.87320031499257,None,81.87320031499257,None,0.01125,-0.01125,1,0,0,rectangle,0.011544504726771265,None,81.87320031499257,None,81.87320031499257,None,81.87320031499257,None,,001,2020_Oct_12_1302,Simcolourproject_2stim_asymm_v1,2020.1.2,60.059724579031325,
5,6,FF,0,12,12,12,82.18991624197224,82.45395029900828,82.18991624197224,None,82.70408354996471,None,82.70408354996471,None,82.70408354996471,None,82.70408354996471,None,82.70408354996471,None,82.70408354996471,None,82.70408354996471,None,82.70408354996471,None,0.08,-0.07375,1,0,0,response3disk,0.01577555137919262,None,82.70408354996471,None,82.70408354996471,None,None,None,None,None,None,None,None,None,None,None,None,None,None,None,None,None,0.08,-0.07375,1,0,0,response3disk,None,None,None,None,None,None,82.95642664498882,None,82.95642664498882,None,82.95642664498882,None,82.95642664498882,None,82.95642664498882,None,82.95642664498882,None,82.95642664498882,None,82.95642664498882,None,0.005,-0.025,1,0,0,rectangle,0.012433403811883181,None,82.95642664498882,None,82.95642664498882,None,82.95642664498882,None,,001,2020_Oct_12_1302,Simcolourproject_2stim_asymm_v1,2020.1.2,60.059724579031325,
4,2,FF,0,13,13,13,83.57387676095823,83.83819648099598,83.57387676095823,None,84.08948208997026,None,84.08948208997026,None,84.08948208997026,None,84.08948208997026,None,84.08948208997026,None,84.08948208997026,None,84.08948208997026,None,84.08948208997026,None,0.03875,-0.10625,1,0,0,response3disk,0.015674453403335065,None,84.08948208997026,None,84.08948208997026,None,None,None,None,None,None,None,None,None,None,None,None,None,None,None,None,None,0.03875,-0.10625,1,0,0,response3disk,None,None,None,None,None,None,84.3887318969937,None,84.3887318969937,None,84.3887318969937,None,84.3887318969937,None,84.3887318969937,None,84.3887318969937,None,84.3887318969937,None,84.3887318969937,None,0.01,-0.01375,1,0,0,rectangle,0.002942388760857284,None,84.3887318969937,None,84.3887318969937,None,84.3887318969937,None,,001,2020_Oct_12_1302,Simcolourproject_2stim_asymm_v1,2020.1.2,60.059724579031325,
2,2,PF,0,14,14,14,84.68965400097659,84.95534082397353,84.68965400097659,None,85.18917175999377,None,85.18917175999377,None,85.18917175999377,None,85.18917175999377,None,85.18917175999377,None,85.18917175999377,None,85.18917175999377,None,85.18917175999377,None,-0.02,-0.095,1,0,0,response5disk,0.015531021461356431,None,85.18917175999377,None,85.18917175999377,None,None,None,None,None,None,None,None,None,None,None,None,None,None,None,None,None,-0.02,-0.095,1,0,0,response5disk,None,None,None,None,None,None,85.5209307220066,None,85.5209307220066,None,85.5209307220066,None,85.5209307220066,None,85.5209307220066,None,85.5209307220066,None,85.5209307220066,None,85.5209307220066,None,0.00125,0.00125,1,0,0,rectangle,0.010821177740581334,None,85.5209307220066,None,85.5209307220066,None,85.5209307220066,None,,001,2020_Oct_12_1302,Simcolourproject_2stim_asymm_v1,2020.1.2,60.059724579031325,
1,9,PF,0,15,15,15,86.02544047997799,86.2891257799929,86.02544047997799,None,86.53978517395444,None,86.53978517395444,None,86.53978517395444,None,86.53978517395444,None,86.53978517395444,None,86.53978517395444,None,86.53978517395444,None,86.53978517395444,None,0.05375,-0.10125,1,0,0,response3disk,0.015579458384308964,None,86.53978517395444,None,86.53978517395444,None,None,None,None,None,None,None,None,None,None,None,None,None,None,None,None,None,0.05375,-0.10125,1,0,0,response3disk,None,None,None,None,None,None,86.78926633897936,None,86.78926633897936,None,86.78926633897936,None,86.78926633897936,None,86.78926633897936,None,86.78926633897936,None,86.78926633897936,None,86.78926633897936,None,0.00875,0.0075,1,0,0,rectangle,0.009791144751943648,None,86.78926633897936,None,86.78926633897936,None,86.78926633897936,None,,001,2020_Oct_12_1302,Simcolourproject_2stim_asymm_v1,2020.1.2,60.059724579031325,
5,8,FF,0,16,16,16,87.17310975299915,87.42223948496394,87.17310975299915,None,87.6739125669701,None,87.6739125669701,None,87.6739125669701,None,87.6739125669701,None,87.6739125669701,None,87.6739125669701,None,87.6739125669701,None,87.6739125669701,None,-0.06625,0.08625,1,0,0,response7disk,0.01568854443030432,None,87.6739125669701,None,87.6739125669701,None,None,None,None,None,None,None,None,None,None,None,None,None,None,None,None,None,-0.06625,0.08625,1,0,0,response7disk,None,None,None,None,None,None,88.10691367596155,None,88.10691367596155,None,88.10691367596155,None,88.10691367596155,None,88.10691367596155,None,88.10691367596155,None,88.10691367596155,None,88.10691367596155,None,0.00125,-0.0025,1,0,0,rectangle,0.011091295746155083,None,88.10691367596155,None,88.10691367596155,None,88.10691367596155,None,,001,2020_Oct_12_1302,Simcolourproject_2stim_asymm_v1,2020.1.2,60.059724579031325,
9,9,FF,0,17,17,17,88.5586353779654,88.82325048797065,88.5586353779654,None,89.0735224429518,None,89.0735224429518,None,89.0735224429518,None,89.0735224429518,None,89.0735224429518,None,89.0735224429518,None,89.0735224429518,None,89.0735224429518,None,0.06,0.06875,1,0,0,response1disk,0.01588788634398952,None,89.0735224429518,None,89.0735224429518,None,None,None,None,None,None,None,None,None,None,None,None,None,None,None,None,None,0.06,0.06875,1,0,0,response1disk,None,None,None,None,None,None,89.40675988496514,None,89.40675988496514,None,89.40675988496514,None,89.40675988496514,None,89.40675988496514,None,89.40675988496514,None,89.40675988496514,None,89.40675988496514,None,-0.01,-0.01875,1,0,0,rectangle,0.015331038797739893,None,89.40675988496514,None,89.40675988496514,None,89.40675988496514,None,,001,2020_Oct_12_1302,Simcolourproject_2stim_asymm_v1,2020.1.2,60.059724579031325,
6,7,FF,0,18,18,18,89.8269113599672,90.09079343697522,89.8269113599672,None,90.34076112700859,None,90.34076112700859,None,90.34076112700859,None,90.34076112700859,None,90.34076112700859,None,90.34076112700859,None,90.34076112700859,None,90.34076112700859,None,0.09125,0.0175,1,0,0,response1disk,0.01526012143585831,None,90.34076112700859,None,90.34076112700859,None,None,None,None,None,None,None,None,None,None,None,None,None,None,None,None,None,0.09125,0.0175,1,0,0,response1disk,None,None,None,None,None,None,90.62359693698818,None,90.62359693698818,None,90.62359693698818,None,90.62359693698818,None,90.62359693698818,None,90.62359693698818,None,90.62359693698818,None,90.62359693698818,None,0.02,-0.01125,1,0,0,rectangle,0.014635546714998782,None,90.62359693698818,None,90.62359693698818,None,90.62359693698818,None,,001,2020_Oct_12_1302,Simcolourproject_2stim_asymm_v1,2020.1.2,60.059724579031325,
5,5,FF,0,19,19,19,90.99311306898016,91.25788236397784,90.99311306898016,None,91.50826593395323,None,91.50826593395323,None,91.50826593395323,None,91.50826593395323,None,91.50826593395323,None,91.50826593395323,None,91.50826593395323,None,91.50826593395323,None,0.07875,-0.09375,1,0,0,response3disk,0.015603365376591682,None,91.50826593395323,None,91.50826593395323,None,None,None,None,None,None,None,None,None,None,None,None,None,None,None,None,None,0.07875,-0.09375,1,0,0,response3disk,None,None,None,None,None,None,91.84104883699911,None,91.84104883699911,None,91.84104883699911,None,91.84104883699911,None,91.84104883699911,None,91.84104883699911,None,91.84104883699911,None,91.84104883699911,None,0.0025,-0.01875,1,0,0,rectangle,0.01425778673728928,None,91.84104883699911,None,91.84104883699911,None,91.84104883699911,None,,001,2020_Oct_12_1302,Simcolourproject_2stim_asymm_v1,2020.1.2,60.059724579031325,
8,1,FF,0,20,20,20,92.20990748895565,92.4751094210078,92.20990748895565,None,92.7243184359977,None,92.7243184359977,None,92.7243184359977,None,92.7243184359977,None,92.7243184359977,None,92.7243184359977,None,92.7243184359977,None,92.7243184359977,None,0.0875,-0.055,1,0,0,response3disk,0.01559976936550811,None,92.7243184359977,None,92.7243184359977,None,None,None,None,None,None,None,None,None,None,None,None,None,None,None,None,None,0.0875,-0.055,1,0,0,response3disk,None,None,None,None,None,None,93.02481147396611,None,93.02481147396611,None,93.02481147396611,None,93.02481147396611,None,93.02481147396611,None,93.02481147396611,None,93.02481147396611,None,93.02481147396611,None,0.0075,-0.00375,1,0,0,rectangle,0.014185384789016098,None,93.02481147396611,None,93.02481147396611,None,93.02481147396611,None,,001,2020_Oct_12_1302,Simcolourproject_2stim_asymm_v1,2020.1.2,60.059724579031325,
6,3,FF,0,21,21,21,93.31116948398994,93.57558384799631,93.31116948398994,None,93.82568835595157,None,93.82568835595157,None,93.82568835595157,None,93.82568835595157,None,93.82568835595157,None,93.82568835595157,None,93.82568835595157,None,93.82568835595157,None,-0.04,-0.1,1,0,0,response5disk,0.01560418534791097,None,93.82568835595157,None,93.82568835595157,None,None,None,None,None,None,None,None,None,None,None,None,None,None,None,None,None,-0.04,-0.1,1,0,0,response5disk,None,None,None,None,None,None,94.04220863297815,None,94.04220863297815,None,94.04220863297815,None,94.04220863297815,None,94.04220863297815,None,94.04220863297815,None,94.04220863297815,None,94.04220863297815,None,-0.00375,-0.0075,1,0,0,rectangle,0.015143061813432723,None,94.04220863297815,None,94.04220863297815,None,94.04220863297815,None,,001,2020_Oct_12_1302,Simcolourproject_2stim_asymm_v1,2020.1.2,60.059724579031325,
8,2,FF,0,22,22,22,94.34551006299444,94.60900344600668,94.34551006299444,None,94.86025412095478,None,94.86025412095478,None,94.86025412095478,None,94.86025412095478,None,94.86025412095478,None,94.86025412095478,None,94.86025412095478,None,94.86025412095478,None,-0.0825,-0.045,1,0,0,response5disk,0.015266208385583013,None,94.86025412095478,None,94.86025412095478,None,None,None,None,None,None,None,None,None,None,None,None,None,None,None,None,None,-0.0825,-0.045,1,0,0,response5disk,None,None,None,None,None,None,95.1763498429791,None,95.1763498429791,None,95.1763498429791,None,95.1763498429791,None,95.1763498429791,None,95.1763498429791,None,95.1763498429791,None,95.1763498429791,None,0.0025,0.00125,1,0,0,rectangle,0.013586904795374721,None,95.1763498429791,None,95.1763498429791,None,95.1763498429791,None,,001,2020_Oct_12_1302,Simcolourproject_2stim_asymm_v1,2020.1.2,60.059724579031325,
8,7,PF,0,23,23,23,95.51206663495395,95.77687988500111,95.51206663495395,None,96.02672716998495,None,96.02672716998495,None,96.02672716998495,None,96.02672716998495,None,96.02672716998495,None,96.02672716998495,None,96.02672716998495,None,96.02672716998495,None,-0.06625,0.09625,1,0,0,response7disk,0.015600243408698589,None,96.02672716998495,None,96.02672716998495,None,None,None,None,None,None,None,None,None,None,None,None,None,None,None,None,None,-0.06625,0.09625,1,0,0,response7disk,None,None,None,None,None,None,96.29359130497323,None,96.29359130497323,None,96.29359130497323,None,96.29359130497323,None,96.29359130497323,None,96.29359130497323,None,96.29359130497323,None,96.29359130497323,None,0.0075,-0.015,1,0,0,rectangle,0.013113735767547041,None,96.29359130497323,None,96.29359130497323,None,96.29359130497323,None,,001,2020_Oct_12_1302,Simcolourproject_2stim_asymm_v1,2020.1.2,60.059724579031325,
1,2,PF,0,24,24,24,96.64574180997442,96.9101343479706,96.64574180997442,None,97.16079563699896,None,97.16079563699896,None,97.16079563699896,None,97.16079563699896,None,97.16079563699896,None,97.16079563699896,None,97.16079563699896,None,97.16079563699896,None,0.08875,-0.06625,1,0,0,response3disk,0.01561109145404771,None,97.16079563699896,None,97.16079563699896,None,None,None,None,None,None,None,None,None,None,None,None,None,None,None,None,None,0.08875,-0.06625,1,0,0,response3disk,None,None,None,None,None,None,97.44399579195306,None,97.44399579195306,None,97.44399579195306,None,97.44399579195306,None,97.44399579195306,None,97.44399579195306,None,97.44399579195306,None,97.44399579195306,None,-0.0075,-0.01625,1,0,0,rectangle,0.01434858376160264,None,97.44399579195306,None,97.44399579195306,None,97.44399579195306,None,,001,2020_Oct_12_1302,Simcolourproject_2stim_asymm_v1,2020.1.2,60.059724579031325,
5,3,FF,0,25,25,25,97.76321432698751,98.02718674897915,97.76321432698751,None,98.27805729699321,None,98.27805729699321,None,98.27805729699321,None,98.27805729699321,None,98.27805729699321,None,98.27805729699321,None,98.27805729699321,None,98.27805729699321,None,0.035,-0.09375,1,0,0,response3disk,0.015463713381905109,None,98.27805729699321,None,98.27805729699321,None,None,None,None,None,None,None,None,None,None,None,None,None,None,None,None,None,0.035,-0.09375,1,0,0,response3disk,None,None,None,None,None,None,98.54423949896591,None,98.54423949896591,None,98.54423949896591,None,98.54423949896591,None,98.54423949896591,None,98.54423949896591,None,98.54423949896591,None,98.54423949896591,None,-0.00625,0.00375,1,0,0,rectangle,0.01397213980089873,None,98.54423949896591,None,98.54423949896591,None,98.54423949896591,None,,001,2020_Oct_12_1302,Simcolourproject_2stim_asymm_v1,2020.1.2,60.059724579031325,
6,3,PF,0,26,26,26,98.897323134006,99.16143527399981,98.897323134006,None,99.41099356900668,None,99.41099356900668,None,99.41099356900668,None,99.41099356900668,None,99.41099356900668,None,99.41099356900668,None,99.41099356900668,None,99.41099356900668,None,-0.055,-0.10875,1,0,0,response5disk,0.01560708339093253,None,99.41099356900668,None,99.41099356900668,None,None,None,None,None,None,None,None,None,None,None,None,None,None,None,None,None,-0.055,-0.10875,1,0,0,response5disk,None,None,None,None,None,None,99.77774309396045,None,99.77774309396045,None,99.77774309396045,None,99.77774309396045,None,99.77774309396045,None,99.77774309396045,None,99.77774309396045,None,99.77774309396045,None,-0.01,-0.00875,1,0,0,rectangle,0.0007563353865407407,None,99.77774309396045,None,99.77774309396045,None,99.77774309396045,None,,001,2020_Oct_12_1302,Simcolourproject_2stim_asymm_v1,2020.1.2,60.059724579031325,
1,8,FF,0,27,27,27,100.11402088595787,100.37882030796027,100.11402088595787,None,100.62868418800645,None,100.62868418800645,None,100.62868418800645,None,100.62868418800645,None,100.62868418800645,None,100.62868418800645,None,100.62868418800645,None,100.62868418800645,None,-0.1,-0.06625,1,0,0,response5disk,0.015169457357842475,None,100.62868418800645,None,100.62868418800645,None,None,None,None,None,None,None,None,None,None,None,None,None,None,None,None,None,-0.1,-0.06625,1,0,0,response5disk,None,None,None,None,None,None,101.02963080600603,None,101.02963080600603,None,101.02963080600603,None,101.02963080600603,None,101.02963080600603,None,101.02963080600603,None,101.02963080600603,None,101.02963080600603,None,-0.00625,-0.0075,1,0,0,rectangle,0.014794608752708882,None,101.02963080600603,None,101.02963080600603,None,101.02963080600603,None,,001,2020_Oct_12_1302,Simcolourproject_2stim_asymm_v1,2020.1.2,60.059724579031325,
1,5,PF,0,28,28,28,101.3809085880057,101.64623313996708,101.3809085880057,None,101.89627440000186,None,101.89627440000186,None,101.89627440000186,None,101.89627440000186,None,101.89627440000186,None,101.89627440000186,None,101.89627440000186,None,101.89627440000186,None,0.0675,-0.10875,1,0,0,response3disk,0.015607086417730898,None,101.89627440000186,None,101.89627440000186,None,None,None,None,None,None,None,None,None,None,None,None,None,None,None,None,None,0.0675,-0.10875,1,0,0,response3disk,None,None,None,None,None,None,103.19749672198668,None,103.19749672198668,None,103.19749672198668,None,103.19749672198668,None,103.19749672198668,None,103.19749672198668,None,103.19749672198668,None,103.19749672198668,None,0.0025,-0.00125,1,0,0,rectangle,0.013844694767612964,None,103.19749672198668,None,103.19749672198668,None,103.19749672198668,None,,001,2020_Oct_12_1302,Simcolourproject_2stim_asymm_v1,2020.1.2,60.059724579031325,
7,6,PF,0,29,29,29,103.86611372197513,104.13075138500426,103.86611372197513,None,104.38072238396853,None,104.38072238396853,None,104.38072238396853,None,104.38072238396853,None,104.38072238396853,None,104.38072238396853,None,104.38072238396853,None,104.38072238396853,None,0.11125,-0.065,1,0,0,response3disk,0.015061238373164088,None,104.38072238396853,None,104.38072238396853,None,None,None,None,None,None,None,None,None,None,None,None,None,None,None,None,None,0.11125,-0.065,1,0,0,response3disk,None,None,None,None,None,None,105.04784749395913,None,105.04784749395913,None,105.04784749395913,None,105.04784749395913,None,105.04784749395913,None,105.04784749395913,None,105.04784749395913,None,105.04784749395913,None,0.0,-0.00625,1,0,0,rectangle,0.014098430809099227,None,105.04784749395913,None,105.04784749395913,None,105.04784749395913,None,,001,2020_Oct_12_1302,Simcolourproject_2stim_asymm_v1,2020.1.2,60.059724579031325,
3,4,PF,0,30,30,30,105.6162642109557,105.86527851800201,105.6162642109557,None,106.13188752898714,None,106.13188752898714,None,106.13188752898714,None,106.13188752898714,None,106.13188752898714,None,106.13188752898714,None,106.13188752898714,None,106.13188752898714,None,0.0925,0.03625,1,0,0,response1disk,0.015577941376250237,None,106.13188752898714,None,106.13188752898714,None,None,None,None,None,None,None,None,None,None,None,None,None,None,None,None,None,0.0925,0.03625,1,0,0,response1disk,None,None,None,None,None,None,106.58134274900658,None,106.58134274900658,None,106.58134274900658,None,106.58134274900658,None,106.58134274900658,None,106.58134274900658,None,106.58134274900658,None,106.58134274900658,None,-0.00625,-0.02,1,0,0,rectangle,0.01333529077237472,None,106.58134274900658,None,106.58134274900658,None,106.58134274900658,None,,001,2020_Oct_12_1302,Simcolourproject_2stim_asymm_v1,2020.1.2,60.059724579031325,
7,6,FF,0,31,31,31,107.16687922296114,107.431725050963,107.16687922296114,None,107.6833052180009,None,107.6833052180009,None,107.6833052180009,None,107.6833052180009,None,107.6833052180009,None,107.6833052180009,None,107.6833052180009,None,107.6833052180009,None,0.08,-0.09375,1,0,0,response3disk,0.015494956343900412,None,107.6833052180009,None,107.6833052180009,None,None,None,None,None,None,None,None,None,None,None,None,None,None,None,None,None,0.08,-0.09375,1,0,0,response3disk,None,None,None,None,None,None,107.9656129059731,None,107.9656129059731,None,107.9656129059731,None,107.9656129059731,None,107.9656129059731,None,107.9656129059731,None,107.9656129059731,None,107.9656129059731,None,-0.00625,-0.0325,1,0,0,rectangle,0.014742208761163056,None,107.9656129059731,None,107.9656129059731,None,107.9656129059731,None,,001,2020_Oct_12_1302,Simcolourproject_2stim_asymm_v1,2020.1.2,60.059724579031325,
7,2,PF,0,32,32,32,108.33390281995526,108.59950855799252,108.33390281995526,None,108.85000047495123,None,108.85000047495123,None,108.85000047495123,None,108.85000047495123,None,108.85000047495123,None,108.85000047495123,None,108.85000047495123,None,108.85000047495123,None,0.0425,-0.12875,1,0,0,response3disk,0.015605406370013952,None,108.85000047495123,None,108.85000047495123,None,None,None,None,None,None,None,None,None,None,None,None,None,None,None,None,None,0.0425,-0.12875,1,0,0,response3disk,None,None,None,None,None,None,109.09932182496414,None,109.09932182496414,None,109.09932182496414,None,109.09932182496414,None,109.09932182496414,None,109.09932182496414,None,109.09932182496414,None,109.09932182496414,None,-0.005,-0.0375,1,0,0,rectangle,0.014120848733000457,None,109.09932182496414,None,109.09932182496414,None,109.09932182496414,None,,001,2020_Oct_12_1302,Simcolourproject_2stim_asymm_v1,2020.1.2,60.059724579031325,
6,4,PF,0,33,33,33,109.48539816797711,109.75021000998095,109.48539816797711,None,110.00018589699175,None,110.00018589699175,None,110.00018589699175,None,110.00018589699175,None,110.00018589699175,None,110.00018589699175,None,110.00018589699175,None,110.00018589699175,None,-0.0625,-0.115,1,0,0,response5disk,0.01560673036146909,None,110.00018589699175,None,110.00018589699175,None,None,None,None,None,None,None,None,None,None,None,None,None,None,None,None,None,-0.0625,-0.11625,1,0,0,response5disk,None,None,None,None,None,None,110.26773634698475,None,110.26773634698475,None,110.26773634698475,None,110.26773634698475,None,110.26773634698475,None,110.26773634698475,None,110.26773634698475,None,110.26773634698475,None,-0.02625,0.00625,1,0,0,rectangle,0.013104807818308473,None,110.26773634698475,None,110.26773634698475,None,110.26773634698475,None,,001,2020_Oct_12_1302,Simcolourproject_2stim_asymm_v1,2020.1.2,60.059724579031325,
7,7,FF,0,34,34,34,110.63436322595226,110.88365300296573,110.63436322595226,None,111.13434420595877,None,111.13434420595877,None,111.13434420595877,None,111.13434420595877,None,111.13434420595877,None,111.13434420595877,None,111.13434420595877,None,111.13434420595877,None,-0.11875,-0.055,1,0,0,response5disk,0.015498464403208345,None,111.13434420595877,None,111.13434420595877,None,None,None,None,None,None,None,None,None,None,None,None,None,None,None,None,None,-0.11875,-0.055,1,0,0,response5disk,None,None,None,None,None,None,111.48440159595339,None,111.48440159595339,None,111.48440159595339,None,111.48440159595339,None,111.48440159595339,None,111.48440159595339,None,111.48440159595339,None,111.48440159595339,None,-0.02,0.015,1,0,0,rectangle,0.012607405835296959,None,111.48440159595339,None,111.48440159595339,None,111.48440159595339,None,,001,2020_Oct_12_1302,Simcolourproject_2stim_asymm_v1,2020.1.2,60.059724579031325,
4,8,FF,0,35,35,35,111.85136199899716,112.10098099400057,111.85136199899716,None,112.35126989596756,None,112.35126989596756,None,112.35126989596756,None,112.35126989596756,None,112.35126989596756,None,112.35126989596756,None,112.35126989596756,None,112.35126989596756,None,0.0925,-0.11375,1,0,0,response3disk,0.015275273413863033,None,112.35126989596756,None,112.35126989596756,None,None,None,None,None,None,None,None,None,None,None,None,None,None,None,None,None,0.0925,-0.11375,1,0,0,response3disk,None,None,None,None,None,None,112.5680175559828,None,112.5680175559828,None,112.5680175559828,None,112.5680175559828,None,112.5680175559828,None,112.5680175559828,None,112.5680175559828,None,112.5680175559828,None,-0.00875,0.01625,1,0,0,rectangle,0.014101106789894402,None,112.5680175559828,None,112.5680175559828,None,112.5680175559828,None,,001,2020_Oct_12_1302,Simcolourproject_2stim_asymm_v1,2020.1.2,60.059724579031325,
3,2,PF,0,36,36,36,112.97044635599013,113.23543712199898,112.97044635599013,None,113.48465264396509,None,113.48465264396509,None,113.48465264396509,None,113.48465264396509,None,113.48465264396509,None,113.48465264396509,None,113.48465264396509,None,113.48465264396509,None,0.11875,-0.06375,1,0,0,response3disk,0.015212086378596723,None,113.48465264396509,None,113.48465264396509,None,None,None,None,None,None,None,None,None,None,None,None,None,None,None,None,None,0.11875,-0.06375,1,0,0,response3disk,None,None,None,None,None,None,113.71836428600363,None,113.71836428600363,None,113.71836428600363,None,113.71836428600363,None,113.71836428600363,None,113.71836428600363,None,113.71836428600363,None,113.71836428600363,None,-0.005,0.0075,1,0,0,rectangle,0.014149929804261774,None,113.71836428600363,None,113.71836428600363,None,113.71836428600363,None,,001,2020_Oct_12_1302,Simcolourproject_2stim_asymm_v1,2020.1.2,60.059724579031325,
8,6,FF,0,37,37,37,114.10429965297226,114.36877263797214,114.10429965297226,None,114.61893831600901,None,114.61893831600901,None,114.61893831600901,None,114.61893831600901,None,114.61893831600901,None,114.61893831600901,None,114.61893831600901,None,114.61893831600901,None,0.05125,-0.07875,1,0,0,response3disk,0.015603755367919803,None,114.61893831600901,None,114.61893831600901,None,None,None,None,None,None,None,None,None,None,None,None,None,None,None,None,None,0.05125,-0.07875,1,0,0,response3disk,None,None,None,None,None,None,114.80189414595952,None,114.80189414595952,None,114.80189414595952,None,114.80189414595952,None,114.80189414595952,None,114.80189414595952,None,114.80189414595952,None,114.80189414595952,None,-0.00875,0.015,1,0,0,rectangle,0.010252365784253925,None,114.80189414595952,None,114.80189414595952,None,114.80189414595952,None,,001,2020_Oct_12_1302,Simcolourproject_2stim_asymm_v1,2020.1.2,60.059724579031325,
4,7,PF,0,38,38,38,115.1381532229716,115.40298104495741,115.1381532229716,None,115.65272875799565,None,115.65272875799565,None,115.65272875799565,None,115.65272875799565,None,115.65272875799565,None,115.65272875799565,None,115.65272875799565,None,115.65272875799565,None,0.10125,-0.05125,1,0,0,response3disk,0.015225863375235349,None,115.65272875799565,None,115.65272875799565,None,None,None,None,None,None,None,None,None,None,None,None,None,None,None,None,None,0.10125,-0.05125,1,0,0,response3disk,None,None,None,None,None,None,115.93647908500861,None,115.93647908500861,None,115.93647908500861,None,115.93647908500861,None,115.93647908500861,None,115.93647908500861,None,115.93647908500861,None,115.93647908500861,None,-0.02,0.00875,1,0,0,rectangle,0.01415758376242593,None,115.93647908500861,None,115.93647908500861,None,115.93647908500861,None,,001,2020_Oct_12_1302,Simcolourproject_2stim_asymm_v1,2020.1.2,60.059724579031325,
2,9,PF,0,39,39,39,116.38868061697576,116.65288856200641,116.38868061697576,None,116.90291149099357,None,116.90291149099357,None,116.90291149099357,None,116.90291149099357,None,116.90291149099357,None,116.90291149099357,None,116.90291149099357,None,116.90291149099357,None,0.1025,-0.0625,1,0,0,response3disk,0.015606606379151344,None,116.90291149099357,None,116.90291149099357,None,None,None,None,None,None,None,None,None,None,None,None,None,None,None,None,None,0.1025,-0.0625,1,0,0,response3disk,None,None,None,None,None,None,117.13689918699674,None,117.13689918699674,None,117.13689918699674,None,117.13689918699674,None,117.13689918699674,None,117.13689918699674,None,117.13689918699674,None,117.13689918699674,None,-0.01875,0.0,1,0,0,rectangle,0.013729811820667237,None,117.13689918699674,None,117.13689918699674,None,117.13689918699674,None,,001,2020_Oct_12_1302,Simcolourproject_2stim_asymm_v1,2020.1.2,60.059724579031325,
2,6,FF,0,40,40,40,117.53871128498577,117.8038288539974,117.53871128498577,None,118.05430742399767,None,118.05430742399767,None,118.05430742399767,None,118.05430742399767,None,118.05430742399767,None,118.05430742399767,None,118.05430742399767,None,118.05430742399767,None,0.0625,-0.1025,1,0,0,response3disk,0.015467103396076709,None,118.05430742399767,None,118.05430742399767,None,None,None,None,None,None,None,None,None,None,None,None,None,None,None,None,None,0.0625,-0.1025,1,0,0,response3disk,None,None,None,None,None,None,118.437425031967,None,118.437425031967,None,118.437425031967,None,118.437425031967,None,118.437425031967,None,118.437425031967,None,118.437425031967,None,118.437425031967,None,0.005,-0.0025,1,0,0,rectangle,0.0008662263862788677,None,118.437425031967,None,118.437425031967,None,118.437425031967,None,,001,2020_Oct_12_1302,Simcolourproject_2stim_asymm_v1,2020.1.2,60.059724579031325,
3,7,PF,0,41,41,41,118.85593762400094,119.12123519100714,118.85593762400094,None,119.37198403099319,None,119.37198403099319,None,119.37198403099319,None,119.37198403099319,None,119.37198403099319,None,119.37198403099319,None,119.37198403099319,None,119.37198403099319,None,0.14875,-0.075,1,0,0,response3disk,0.015607646433636546,None,119.37198403099319,None,119.37198403099319,None,None,None,None,None,None,None,None,None,None,None,None,None,None,None,None,None,0.14875,-0.075,1,0,0,response3disk,None,None,None,None,None,None,119.53756465599872,None,119.53756465599872,None,119.53756465599872,None,119.53756465599872,None,119.53756465599872,None,119.53756465599872,None,119.53756465599872,None,119.53756465599872,None,-0.0175,0.005,1,0,0,rectangle,0.014066136791370809,None,119.53756465599872,None,119.53756465599872,None,119.53756465599872,None,,001,2020_Oct_12_1302,Simcolourproject_2stim_asymm_v1,2020.1.2,60.059724579031325,
8,9,PF,0,42,42,42,120.09049335098825,120.35474433598574,120.09049335098825,None,120.6051301129628,None,120.6051301129628,None,120.6051301129628,None,120.6051301129628,None,120.6051301129628,None,120.6051301129628,None,120.6051301129628,None,120.6051301129628,None,0.10375,0.04375,1,0,0,response1disk,0.015593503427226096,None,120.6051301129628,None,120.6051301129628,None,None,None,None,None,None,None,None,None,None,None,None,None,None,None,None,None,0.10375,0.04375,1,0,0,response1disk,None,None,None,None,None,None,121.02147077099653,None,121.02147077099653,None,121.02147077099653,None,121.02147077099653,None,121.02147077099653,None,121.02147077099653,None,121.02147077099653,None,121.02147077099653,None,0.0275,0.0075,1,0,0,rectangle,0.014296462759375572,None,121.02147077099653,None,121.02147077099653,None,121.02147077099653,None,,001,2020_Oct_12_1302,Simcolourproject_2stim_asymm_v1,2020.1.2,60.059724579031325,
7,4,PF,0,43,43,43,121.39045121095842,121.6556099979789,121.39045121095842,None,121.90647415298736,None,121.90647415298736,None,121.90647415298736,None,121.90647415298736,None,121.90647415298736,None,121.90647415298736,None,121.90647415298736,None,121.90647415298736,None,0.065,-0.10125,1,0,0,response3disk,0.015586656401865184,None,121.90647415298736,None,121.90647415298736,None,None,None,None,None,None,None,None,None,None,None,None,None,None,None,None,None,0.065,-0.10125,1,0,0,response3disk,None,None,None,None,None,None,122.0726827349863,None,122.0726827349863,None,122.0726827349863,None,122.0726827349863,None,122.0726827349863,None,122.0726827349863,None,122.0726827349863,None,122.0726827349863,None,-0.01625,0.00625,1,0,0,rectangle,0.015810069744475186,None,122.0726827349863,None,122.0726827349863,None,122.0726827349863,None,,001,2020_Oct_12_1302,Simcolourproject_2stim_asymm_v1,2020.1.2,60.059724579031325,
,,,,,,,122.42430356499972,122.68928524799412,122.42430356499972,None,,,,,,,,,,,,,,,,,,,,,,,,,,,,,,,,,,,,,,,,,,,,,,,,,,,,,,,,,,,,,,,,,,,,,,,,,,,,,,,,,,,,,,,,,,,,,
