trials.thisRepN,trials.thisTrialN,trials.thisN,trials.thisIndex,welcome.started,welcome.stopped,key_resp.keys,key_resp.rt,key_resp.started,key_resp.stopped,text_1.started,text_1.stopped,space_2.started,space_2.stopped,text_2.started,text_2.stopped,key_resp_2.keys,key_resp_2.rt,key_resp_2.started,key_resp_2.stopped,ccimage.started,ccimage.stopped,X Scale,ratio_pxpermm,screen_size_x,screen_size_y,text_37.started,text_37.stopped,movie.started,movie.stopped,text.started,text.stopped,key_resp_3.keys,key_resp_3.rt,key_resp_3.started,key_resp_3.stopped,text_3.started,text_3.stopped,space_3.started,space_3.stopped,text_4.started,text_4.stopped,key_resp_4.keys,key_resp_4.rt,key_resp_4.started,key_resp_4.stopped,line_size,calibrationline.started,calibrationline.stopped,text_5.started,text_5.stopped,key_resp_5.keys,key_resp_5.rt,key_resp_5.started,key_resp_5.stopped,space_4.started,space_4.stopped,key_resp_6.keys,key_resp_6.rt,key_resp_6.started,key_resp_6.stopped,space_5.started,space_5.stopped,instr_only.started,instr_only.stopped,text_6.started,text_6.stopped,key_resp_8.keys,key_resp_8.rt,key_resp_8.started,key_resp_8.stopped,space_7.started,space_7.stopped,instr_only_3.started,instr_only_3.stopped,text_8.started,text_8.stopped,key_resp_7.keys,key_resp_7.rt,key_resp_7.started,key_resp_7.stopped,space_6.started,space_6.stopped,instr_only_2.started,instr_only_2.stopped,text_7.started,text_7.stopped,center_cross.started,center_cross.stopped,key_resp_12.keys,key_resp_12.rt,key_resp_12.started,key_resp_12.stopped,space_11.started,space_11.stopped,instr_only_5.started,instr_only_5.stopped,text_13.started,text_13.stopped,center_cross_3.started,center_cross_3.stopped,black_square.started,black_square.stopped,text_14.started,text_14.stopped,key_resp_11.keys,key_resp_11.rt,key_resp_11.started,key_resp_11.stopped,space_8.started,space_8.stopped,instr_only_4.started,instr_only_4.stopped,text_11.started,text_11.stopped,center_cross_2.started,center_cross_2.stopped,black_square1.started,black_square1.stopped,text_12.started,text_12.stopped,white_ball2.started,white_ball2.stopped,key_resp_18.keys,key_resp_18.rt,key_resp_18.started,key_resp_18.stopped,space_17.started,space_17.stopped,instr_only_7.started,instr_only_7.stopped,text_44.started,text_44.stopped,key_resp_21.keys,key_resp_21.rt,key_resp_21.started,key_resp_21.stopped,space_18.started,space_18.stopped,instr_only_8.started,instr_only_8.stopped,text_45.started,text_45.stopped,white_ball1.started,white_ball1.stopped,black_square3.started,black_square3.stopped,text_19.started,text_19.stopped,text_20.started,text_20.stopped,white_ball12.started,white_ball12.stopped,text_21.started,text_21.stopped,text_22.started,text_22.stopped,white_ball13.started,white_ball13.stopped,key_resp_13.keys,key_resp_13.rt,key_resp_13.started,key_resp_13.stopped,space_12.started,space_12.stopped,instr_only_6.started,instr_only_6.stopped,text_15.started,text_15.stopped,black_square2.started,black_square2.stopped,white_ball.started,white_ball.stopped,key_resp_19.keys,key_resp_19.rt,key_resp_19.started,key_resp_19.stopped,ballposx,viewer_distance,text_39.started,text_39.stopped,viewerdistancecm,DVA_to_distance,radius_F,radius_P,r_F,R_P,text_38.started,text_38.stopped,text_40.started,text_40.stopped,space_16.started,space_16.stopped,key_resp_20.keys,key_resp_20.rt,key_resp_20.started,key_resp_20.stopped,participant,session,date,expName,psychopyVersion,frameRate,
,,,,173.1497026789948,None,space,4.1373345449974295,175.05723671199667,None,,,,,,,,,,,,,,,,,,,,,,,,,,,,,,,,,,,,,,,,,,,,,,,,,,,,,,,,,,,,,,,,,,,,,,,,,,,,,,,,,,,,,,,,,,,,,,,,,,,,,,,,,,,,,,,,,,,,,,,,,,,,,,,,,,,,,,,,,,,,,,,,,,,,,,,,,,,,,,,,,,,,,,,,,,,,,,,,,,,,,,,,,,,,,001,2020_Oct_29_1304,Simcolourproject_2stim_asymm_good,2020.1.2,60.24221732957386,
,,,,,,,,,,179.26044626699877,None,181.21067716099788,None,179.26044626699877,None,space,1.407907663997321,181.21067716099788,None,,,,,,,,,,,,,,,,,,,,,,,,,,,,,,,,,,,,,,,,,,,,,,,,,,,,,,,,,,,,,,,,,,,,,,,,,,,,,,,,,,,,,,,,,,,,,,,,,,,,,,,,,,,,,,,,,,,,,,,,,,,,,,,,,,,,,,,,,,,,,,,,,,,,,,,,,,,,,,,,,,,,,,,,,,,,,,,,,,,001,2020_Oct_29_1304,Simcolourproject_2stim_asymm_good,2020.1.2,60.24221732957386,
,,,,,,,,,,,,,,,,,,,,182.66171234999638,None,38.9,3.89,658.0976863753212,411.31105398457584,182.66171234999638,None,192.94953509199695,None,192.94953509199695,None,space,6.620999525002844,192.94953509199695,None,,,,,,,,,,,,,,,,,,,,,,,,,,,,,,,,,,,,,,,,,,,,,,,,,,,,,,,,,,,,,,,,,,,,,,,,,,,,,,,,,,,,,,,,,,,,,,,,,,,,,,,,,,,,,,,,,,,,,,,,,,,,,,,,,,,,,,,,,,,,,,,,,,,,,,,,,,,,,,,,,,,001,2020_Oct_29_1304,Simcolourproject_2stim_asymm_good,2020.1.2,60.24221732957386,
,,,,,,,,,,,,,,,,,,,,,,,,,,,,,,,,,,,,192.94953509199695,None,192.94953509199695,None,199.6052775959979,None,space,3.7013973689972772,199.6052775959979,None,,,,,,,,,,,,,,,,,,,,,,,,,,,,,,,,,,,,,,,,,,,,,,,,,,,,,,,,,,,,,,,,,,,,,,,,,,,,,,,,,,,,,,,,,,,,,,,,,,,,,,,,,,,,,,,,,,,,,,,,,,,,,,,,,,,,,,,,,,,,,,,,,,,,,,,,,001,2020_Oct_29_1304,Simcolourproject_2stim_asymm_good,2020.1.2,60.24221732957386,
,,,,,,,,,,,,,,,,,,,,,,,,,,,,,,,,,,,,,,,,,,,,,,77.8,199.6052775959979,None,203.3403684149962,None,space,4.520642807998229,205.32193144199846,None,,,,,,,,,,,,,,,,,,,,,,,,,,,,,,,,,,,,,,,,,,,,,,,,,,,,,,,,,,,,,,,,,,,,,,,,,,,,,,,,,,,,,,,,,,,,,,,,,,,,,,,,,,,,,,,,,,,,,,,,,,,,,,,,,,,,,,,,,,,,,,,,001,2020_Oct_29_1304,Simcolourproject_2stim_asymm_good,2020.1.2,60.24221732957386,
,,,,,,,,,,,,,,,,,,,,,,,,,,,,,,,,,,,,,,,,,,,,,,,,,,,,,,,205.32193144199846,None,space,1.7203462249963195,211.84226720199513,None,,,,,,,,,,,,,,,,,,,,,,,,,,,,,,,,,,,,,,,,,,,,,,,,,,,,,,,,,,,,,,,,,,,,,,,,,,,,,,,,,,,,,,,,,,,,,,,,,,,,,,,,,,,,,,,,,,,,,,,,,,,,,,,,,,,,,,,,,,001,2020_Oct_29_1304,Simcolourproject_2stim_asymm_good,2020.1.2,60.24221732957386,
,,,,,,,,,,,,,,,,,,,,,,,,,,,,,,,,,,,,,,,,,,,,,,,,,,,,,,,,,,,,,211.84226720199513,None,209.8752731479981,None,209.8752731479981,None,space,0.593699838995235,215.56087846800074,None,,,,,,,,,,,,,,,,,,,,,,,,,,,,,,,,,,,,,,,,,,,,,,,,,,,,,,,,,,,,,,,,,,,,,,,,,,,,,,,,,,,,,,,,,,,,,,,,,,,,,,,,,,,,,,,,,,,,,,,,,,,,,,,,001,2020_Oct_29_1304,Simcolourproject_2stim_asymm_good,2020.1.2,60.24221732957386,
,,,,,,,,,,,,,,,,,,,,,,,,,,,,,,,,,,,,,,,,,,,,,,,,,,,,,,,,,,,,,,,,,,,,,,,215.56087846800074,None,213.59441593099473,None,213.59441593099473,None,space,0.46467101899906993,218.16196408199903,None,,,,,,,,,,,,,,,,,,,,,,,,,,,,,,,,,,,,,,,,,,,,,,,,,,,,,,,,,,,,,,,,,,,,,,,,,,,,,,,,,,,,,,,,,,,,,,,,,,,,,,,,,,,,,,,,,,,,,,001,2020_Oct_29_1304,Simcolourproject_2stim_asymm_good,2020.1.2,60.24221732957386,
,,,,,,,,,,,,,,,,,,,,,,,,,,,,,,,,,,,,,,,,,,,,,,,,,,,,,,,,,,,,,,,,,,,,,,,,,,,,,,,,,218.16196408199903,None,216.17929934799758,None,216.17929934799758,None,216.17929934799758,None,space,3.493256740999641,220.6293626839979,None,,,,,,,,,,,,,,,,,,,,,,,,,,,,,,,,,,,,,,,,,,,,,,,,,,,,,,,,,,,,,,,,,,,,,,,,,,,,,,,,,,,,,,,,,,,,,,,,,,,,,,,,,,001,2020_Oct_29_1304,Simcolourproject_2stim_asymm_good,2020.1.2,60.24221732957386,
,,,,,,,,,,,,,,,,,,,,,,,,,,,,,,,,,,,,,,,,,,,,,,,,,,,,,,,,,,,,,,,,,,,,,,,,,,,,,,,,,,,,,,,,,,,,,220.6293626839979,None,218.6475989440005,None,218.6475989440005,None,218.6475989440005,None,218.6475989440005,None,218.6475989440005,None,space,3.614127915003337,226.1325359689945,None,,,,,,,,,,,,,,,,,,,,,,,,,,,,,,,,,,,,,,,,,,,,,,,,,,,,,,,,,,,,,,,,,,,,,,,,,,,,,,,,,,,,,,,,,,001,2020_Oct_29_1304,Simcolourproject_2stim_asymm_good,2020.1.2,60.24221732957386,
,,,,,,,,,,,,,,,,,,,,,,,,,,,,,,,,,,,,,,,,,,,,,,,,,,,,,,,,,,,,,,,,,,,,,,,,,,,,,,,,,,,,,,,,,,,,,,,,,,,,,,,,,,,,,226.1325359689945,None,224.26435970999592,None,224.26435970999592,None,224.26435970999592,None,224.26435970999592,None,224.26435970999592,None,224.26435970999592,None,space,0.5948524790001102,231.75179466999543,None,,,,,,,,,,,,,,,,,,,,,,,,,,,,,,,,,,,,,,,,,,,,,,,,,,,,,,,,,,,,,,,,,,,,,,,,001,2020_Oct_29_1304,Simcolourproject_2stim_asymm_good,2020.1.2,60.24221732957386,
,,,,,,,,,,,,,,,,,,,,,,,,,,,,,,,,,,,,,,,,,,,,,,,,,,,,,,,,,,,,,,,,,,,,,,,,,,,,,,,,,,,,,,,,,,,,,,,,,,,,,,,,,,,,,,,,,,,,,,,,,,,,,,,231.75179466999543,None,229.77004768500046,None,229.77004768500046,None,space,0.19345722199796,234.353122995999,None,,,,,,,,,,,,,,,,,,,,,,,,,,,,,,,,,,,,,,,,,,,,,,,,,,,,,,,,,,,,,,001,2020_Oct_29_1304,Simcolourproject_2stim_asymm_good,2020.1.2,60.24221732957386,
,,,,,,,,,,,,,,,,,,,,,,,,,,,,,,,,,,,,,,,,,,,,,,,,,,,,,,,,,,,,,,,,,,,,,,,,,,,,,,,,,,,,,,,,,,,,,,,,,,,,,,,,,,,,,,,,,,,,,,,,,,,,,,,,,,,,,,,,,234.353122995999,None,232.3688875939988,None,232.3688875939988,None,234.57052268799453,238.73865733399725,234.57052268799453,None,234.57052268799453,238.73865733399725,238.73865733399725,239.90564237199578,239.90564237199578,242.90683455999533,239.90564237199578,None,238.73865733399725,239.90564237199578,242.90683455999533,None,space,2.681079880996549,248.20956436100096,None,,,,,,,,,,,,,,,,,,,,,,,,,,,,,,,,,,,,001,2020_Oct_29_1304,Simcolourproject_2stim_asymm_good,2020.1.2,60.24221732957386,
0,0,0,0,,,,,,,,,,,,,,,,,,,,,,,,,,,,,,,,,,,,,,,,,,,,,,,,,,,,,,,,,,,,,,,,,,,,,,,,,,,,,,,,,,,,,,,,,,,,,,,,,,,,,,,,,,,,,,,,,,,,,,,,,,,,,,,,,,,,,,,,,,,,,,,,,,,,,,,,,,,,,,,,248.20956436100096,None,246.2423307739955,None,246.2423307739955,None,250.94470700799866,None,250.94470700799866,None,return,5.769855193000694,250.94470700799866,None,2.0,533.2442301765195,250.94470700799866,None,,,,,,,,,,,,,,,,,,001,2020_Oct_29_1304,Simcolourproject_2stim_asymm_good,2020.1.2,60.24221732957386,
1,0,1,0,,,,,,,,,,,,,,,,,,,,,,,,,,,,,,,,,,,,,,,,,,,,,,,,,,,,,,,,,,,,,,,,,,,,,,,,,,,,,,,,,,,,,,,,,,,,,,,,,,,,,,,,,,,,,,,,,,,,,,,,,,,,,,,,,,,,,,,,,,,,,,,,,,,,,,,,,,,,,,,,,,,,,,256.76426211999933,None,256.76426211999933,None,return,5.87029783300386,256.76426211999933,None,-4.0,539.6688594557547,256.76426211999933,None,,,,,,,,,,,,,,,,,,001,2020_Oct_29_1304,Simcolourproject_2stim_asymm_good,2020.1.2,60.24221732957386,
2,0,2,0,,,,,,,,,,,,,,,,,,,,,,,,,,,,,,,,,,,,,,,,,,,,,,,,,,,,,,,,,,,,,,,,,,,,,,,,,,,,,,,,,,,,,,,,,,,,,,,,,,,,,,,,,,,,,,,,,,,,,,,,,,,,,,,,,,,,,,,,,,,,,,,,,,,,,,,,,,,,,,,,,,,,,,262.6829852679948,None,262.6829852679948,None,return,5.495696865000355,262.6829852679948,None,19.0,515.0411138853532,262.6829852679948,None,,,,,,,,,,,,,,,,,,001,2020_Oct_29_1304,Simcolourproject_2stim_asymm_good,2020.1.2,60.24221732957386,
3,0,3,0,,,,,,,,,,,,,,,,,,,,,,,,,,,,,,,,,,,,,,,,,,,,,,,,,,,,,,,,,,,,,,,,,,,,,,,,,,,,,,,,,,,,,,,,,,,,,,,,,,,,,,,,,,,,,,,,,,,,,,,,,,,,,,,,,,,,,,,,,,,,,,,,,,,,,,,,,,,,,,,,,,,,,,268.21874354299507,None,268.21874354299507,None,return,5.6159091829977115,268.21874354299507,None,12.0,522.5365147111276,268.21874354299507,None,,,,,,,,,,,,,,,,,,001,2020_Oct_29_1304,Simcolourproject_2stim_asymm_good,2020.1.2,60.24221732957386,
4,0,4,0,,,,,,,,,,,,,,,,,,,,,,,,,,,,,,,,,,,,,,,,,,,,,,,,,,,,,,,,,,,,,,,,,,,,,,,,,,,,,,,,,,,,,,,,,,,,,,,,,,,,,,,,,,,,,,,,,,,,,,,,,,,,,,,,,,,,,,,,,,,,,,,,,,,,,,,,,,,,,,,,,,,,,,273.8727778389948,None,273.8727778389948,None,return,5.145856344999629,273.8727778389948,None,40.0,492.5549114080301,273.8727778389948,None,,,,,,,,,,,,,,,,,,001,2020_Oct_29_1304,Simcolourproject_2stim_asymm_good,2020.1.2,60.24221732957386,
,,,,,,,,,,,,,,,,,,,,,,,,,,,,,,,,,,,,,,,,,,,,,,,,,,,,,,,,,,,,,,,,,,,,,,,,,,,,,,,,,,,,,,,,,,,,,,,,,,,,,,,,,,,,,,,,,,,,,,,,,,,,,,,,,,,,,,,,,,,,,,,,,,,,,,,,,,,,,,,,,,,,,,,,,,,,,,,,,,,,,52.061,9.08727810233438,53.024267727121114,353.4951181808074,35.34951181808074,159.07280318136333,279.0589756019981,None,279.0589756019981,None,279.0589756019981,None,space,3.2076515709995874,279.0589756019981,None,,001,2020_Oct_29_1304,Simcolourproject_2stim_asymm_good,2020.1.2,60.24221732957386,
